accX,accY,accZ,gyroX,gyroY,gyroZ,timestamp,Activity
-0.496517,3.785628,8.954828,-0.142849,-0.126159,-0.022539,34:22.9,1
-0.462388,3.869603,9.281898,0.084349,0.096695,0.09213,34:23.0,1
-0.296084,3.820505,8.930728,0.061763,0.051543,0.071287,34:23.1,1
-0.469723,3.89011,8.744067,0.007641,0.028679,0.109433,34:23.2,1
-0.472418,4.109105,8.941207,-0.12364,0.099057,0.051943,34:23.3,1
-0.837359,4.051176,8.473878,0.031954,-0.03942,0.144715,34:23.4,1
-1.093476,4.69828,8.90094,-0.291323,0.145343,-0.033145,34:23.5,1
-1.131347,4.305197,8.348439,-0.136222,0.024592,0.25602,34:23.6,1
-0.628693,4.660259,8.403974,-0.106731,0.015743,0.084673,34:23.7,1
-0.941392,4.661007,8.276888,0.083646,0.004052,0.138814,34:23.8,1
-0.943488,4.989275,8.178243,0.013324,-0.088421,0.154715,34:23.9,1
-1.027912,5.349426,9.476793,0.161111,-0.374704,0.323159,34:24.0,1
-0.349823,5.052743,10.32942,-0.591949,0.013053,-0.137447,34:24.1,1
0.214654,2.812801,10.945539,0.743143,0.122592,-0.392463,34:24.2,1
-0.020208,2.852618,8.148006,0.119111,-0.098701,-0.457371,34:24.3,1
-0.421374,3.340903,7.382199,0.16077,-0.190773,-0.194502,34:24.4,1
-0.42302,4.229904,7.092252,-0.105347,-0.156375,-0.195311,34:24.5,1
-0.248783,4.797224,7.952962,0.149146,-0.055042,0.056747,34:24.6,1
-0.355211,5.781727,9.558822,0.240357,0.281866,0.271796,34:24.7,1
-1.383273,6.377039,10.746004,-0.290284,-0.213951,0.155169,34:24.8,1
-1.249751,3.675756,9.419911,0.043724,0.024281,0.411537,34:24.9,1
-0.934656,3.33252,8.022268,-0.076435,-0.111235,0.23824,34:25.0,1
-0.398771,3.499872,7.269333,0.044423,0.00459,0.036121,34:25.1,1
-0.18292,4.587211,7.212302,-0.038079,0.007,-0.10087,34:25.2,1
-0.536933,5.542824,8.145611,-0.183652,-0.365386,-0.034919,34:25.3,1
-0.883762,5.764064,10.28586,-0.034997,-0.431528,0.251534,34:25.4,1
0.015717,3.748655,10.907967,0.617926,-0.274882,0.141323,34:25.5,1
1.146765,3.360063,9.385183,-0.406633,0.398502,-0.664374,34:25.6,1
-0.400118,3.864963,7.038214,0.147781,0.069518,-0.200914,34:25.7,1
-0.404908,4.265081,6.483917,-0.003924,-0.039063,0.010235,34:25.8,1
-0.097747,5.23192,7.667056,0.137773,-0.107127,0.068916,34:25.9,1
-0.251477,5.871241,10.23332,0.224357,0.729595,0.218884,34:26.0,1
-0.715662,5.716313,11.534863,0.225964,0.331369,0.296612,34:26.1,1
-1.272654,4.637955,8.909024,-0.481091,-0.169801,0.266147,34:26.2,1
-0.61537,3.50571,8.329878,0.116058,0.449997,0.211817,34:26.3,1
-0.39937,3.970044,6.702911,0.125507,-0.038158,0.106609,34:26.4,1
-0.340392,5.014872,7.177275,0.048572,-0.228737,0.035614,34:26.5,1
-0.308658,5.716762,9.421558,-0.102534,-0.081143,0.148139,34:26.6,1
0.37018,5.875731,11.040741,-0.523546,0.19106,-0.167744,34:26.7,1
0.114662,3.543731,9.455088,0.136473,-0.483893,-0.351625,34:26.8,1
0.279469,3.644022,8.824749,0.233669,0.198499,-0.413048,34:26.9,1
0.032033,4.274361,6.244864,-0.11946,-0.046744,-0.309503,34:27.0,1
-0.080233,4.742438,7.139104,0.108553,0.039904,-0.082956,34:27.1,1
-0.238454,6.067333,8.129445,-0.418511,-0.278923,-0.067779,34:27.2,1
-1.72636,5.3617,9.512868,0.010501,-0.377697,0.655088,34:27.3,1
-0.184566,3.982468,9.964928,0.309733,0.194806,0.090428,34:27.4,1
-1.129701,3.967649,8.835526,-0.288189,0.159232,0.042466,34:27.5,1
-0.570763,3.758684,7.440428,-0.034409,0.152137,0.088603,34:27.6,1
-0.3365,4.311185,7.225624,0.105774,-0.013978,0.080137,34:27.7,1
-0.352367,5.306166,7.765701,-0.003429,-0.438742,-0.026959,34:27.8,1
-0.725242,5.367239,10.170301,-0.051338,-0.234638,0.165963,34:27.9,1
-0.008832,4.337231,11.586955,0.266625,0.066346,0.216287,34:28.0,1
1.035547,3.396287,8.707992,-0.243558,0.37228,-0.618849,34:28.1,1
-0.481549,3.840863,7.058422,0.047565,-0.057148,-0.266949,34:28.2,1
-0.166903,4.509971,6.918613,-0.049855,-0.138238,-0.117938,34:28.3,1
-0.172591,5.065766,7.829169,0.231748,-0.051534,0.157722,34:28.4,1
-0.166604,5.838309,9.210646,-0.288126,0.290936,0.107537,34:28.5,1
-1.414558,6.165379,9.997111,-0.700366,-0.427433,0.215733,34:28.6,1
-0.866997,3.491789,9.987531,-0.209103,-0.045665,0.194147,34:28.7,1
-0.451012,3.435506,8.828641,0.065016,0.092882,0.121302,34:28.8,1
-0.503703,3.455863,7.455546,0.127567,0.033032,0.115243,34:28.9,1
-0.196841,4.310137,7.204368,0.041651,0.088473,0.083579,34:29.0,1
-0.233215,5.480553,7.36229,-0.157173,-0.52371,0.047516,34:29.1,1
-0.652643,5.74161,9.875863,-0.625656,-0.373302,-0.073744,34:29.2,1
-0.260458,3.40482,12.130475,0.727372,-0.163865,0.381025,34:29.3,1
1.75525,3.276836,9.153615,-0.170866,0.338304,-0.72548,34:29.4,1
-0.188757,3.458558,7.605684,-0.034732,0.12173,-0.347002,34:29.5,1
-0.202679,3.901187,7.23266,-0.03226,-0.071446,-0.013327,34:29.6,1
0.101938,4.513265,7.599696,0.176978,0.050031,0.16302,34:29.7,1
0.39907,5.580246,8.310718,-0.416544,-0.042424,-0.213613,34:29.8,1
-1.320105,5.342091,11.141032,-0.263774,-0.302026,0.128655,34:29.9,1
-0.733774,3.133883,10.423724,0.360711,0.313545,0.275056,34:30.0,1
-1.092578,3.311264,8.838221,0.05529,-0.034848,0.038121,34:30.1,1
-0.646206,3.043471,7.886949,0.026823,-0.02159,-0.142341,34:30.2,1
-0.310754,3.740571,7.704029,-0.132252,-0.389347,-0.498984,34:30.3,1
0.174238,4.035907,9.31004,-0.194779,-0.830186,-0.938738,34:30.4,1
0.267194,3.957919,8.880134,-0.537496,-0.39908,-1.4083,34:30.5,1
0.007335,3.007995,10.572065,-0.02713,-0.560935,-1.344451,34:30.6,1
-0.278122,2.487228,9.631272,0.391418,-0.305496,-0.919243,34:30.7,1
-0.867596,2.895279,8.968001,-0.39766,0.141913,-0.532821,34:30.8,1
-1.882635,2.822231,10.536739,-0.067573,-0.511662,-0.501512,34:30.9,1
-0.379311,2.114503,9.600286,-0.031868,-0.09551,-0.048415,36:01.2,1
-0.074545,2.293231,9.689501,0.001826,0.000268,-0.095213,36:01.3,1
-0.185913,2.092349,9.619895,0.022301,0.260336,-0.04766,36:01.4,1
-0.922831,2.210004,9.663455,0.034292,0.169551,-0.06813,36:01.5,1
-1.2984,2.177073,9.588161,0.183684,0.032328,0.302522,36:01.6,1
-1.21667,2.847678,8.967702,-0.041481,-0.222274,0.154718,36:01.7,1
-1.04842,2.806065,9.609118,-0.096768,0.208678,0.023325,36:01.8,1
-1.143023,3.001409,9.044642,-0.042785,-0.031585,0.178145,36:01.9,1
-0.799338,3.343747,8.91067,0.010213,-0.105934,0.084493,36:02.0,1
-0.856519,3.598367,9.129515,0.019345,-0.158304,-0.021101,36:02.1,1
-1.011297,3.502267,9.006471,-0.001556,-0.156013,0.070534,36:02.2,1
-0.853226,2.833458,10.991343,-0.199171,-0.153831,-0.065409,36:02.3,1
-0.35102,1.242416,11.023976,0.223084,-0.115171,-0.02524,36:02.4,1
-0.048948,1.296604,9.605675,0.191879,-0.003756,-0.443107,36:02.5,1
-0.599952,2.023342,8.869356,0.110223,-0.062135,-0.13874,36:02.6,1
-0.483944,2.552642,8.063881,0.075334,-0.021742,-0.011431,36:02.7,1
-0.410147,3.051704,8.262368,0.066502,0.062673,0.029259,36:02.8,1
-0.377814,3.92873,8.679401,0.203777,0.120285,0.181341,36:02.9,1
-0.246537,3.887117,10.964549,0.264672,-0.019826,0.130045,36:03.0,1
-1.051414,3.167862,12.07973,-0.253512,0.002578,-0.083596,36:03.1,1
-1.147065,1.991608,9.733509,0.10377,0.120819,0.537817,36:03.2,1
-0.137564,2.04355,9.267678,0.119276,-0.032805,0.130618,36:03.3,1
-0.696053,2.158362,7.325167,0.029771,0.002272,-0.001382,36:03.4,1
-0.828527,2.913841,7.527846,-0.161587,-0.131631,0.060299,36:03.5,1
-0.652044,4.269721,8.957972,-0.075746,-0.460989,0.089761,36:03.6,1
-0.477208,4.149371,11.039244,-0.007336,-0.118299,0.079635,36:03.7,1
-0.104932,1.907633,12.420721,0.042012,0.15561,0.052714,36:03.8,1
1.381777,1.488505,9.702074,-0.092305,0.073799,-0.648859,36:03.9,1
-0.189057,2.518662,7.483837,0.092233,-0.035193,-0.267935,36:04.0,1
-0.465382,2.990332,7.366182,-0.067419,0.039995,-0.203194,36:04.1,1
-0.266446,3.293302,8.448431,0.184948,0.064183,0.107565,36:04.2,1
0.025297,4.093537,9.998159,-0.271786,-0.216967,-0.206054,36:04.3,1
-1.537603,4.199218,11.096724,-0.645854,-0.586683,0.205006,36:04.4,1
-1.595083,1.71214,10.08423,-0.093271,0.214128,0.633865,36:04.5,1
-1.106649,1.754352,9.957144,0.193513,0.056058,0.438329,36:04.6,1
-0.380359,2.317481,6.628666,0.156055,-0.023637,0.29772,36:04.7,1
-0.101639,2.934198,7.767198,-0.013862,-0.120848,0.060035,36:04.8,1
-0.331411,3.641028,8.761281,-0.157903,-0.340153,-0.133016,36:04.9,1
-0.743055,3.638035,10.99299,-0.369709,-0.357435,-0.032673,36:05.0,1
-0.642614,1.430725,12.248429,0.48379,0.051498,0.228289,36:05.1,1
0.976719,1.782194,9.542207,-0.157219,0.333434,-0.536944,36:05.2,1
-0.132924,2.360142,7.081025,0.12032,0.146053,-0.213347,36:05.3,1
-0.272883,2.728975,7.176227,-0.146527,-0.009592,-0.185382,36:05.4,1
-0.204475,3.41904,8.435558,0.0527,-0.040512,0.206579,36:05.5,1
0.188608,3.522176,11.780353,0.003088,0.273016,0.026016,36:05.6,1
-0.574356,3.652704,12.520264,-0.293102,-0.677276,-0.245579,36:05.7,1
-1.111888,2.183509,10.363699,-0.246814,-0.158752,0.140553,36:05.8,1
-0.661474,1.753903,8.852441,0.307106,0.123529,0.341067,36:05.9,1
-0.159868,2.5968,6.575826,0.134788,-0.257097,0.026362,36:06.0,1
-0.296833,3.246,8.34799,-0.050858,-0.113115,-0.166394,36:06.1,1
-0.428259,3.955075,8.866362,-0.095797,-0.271241,-0.072295,36:06.2,1
-0.464035,4.407884,10.238259,-0.434053,-0.486091,0.109868,36:06.3,1
-0.671653,1.441053,11.634556,0.25049,-0.217615,0.163081,36:06.4,1
0.85607,1.819466,9.533525,-0.018928,0.656958,-0.485048,36:06.5,1
-0.114063,2.633773,7.263795,0.074115,0.182686,-0.388797,36:06.6,1
-0.436642,2.881059,7.770641,-0.090831,-0.014973,-0.108452,36:06.7,1
-0.198936,3.813021,8.327782,0.098337,-0.013091,0.183824,36:06.8,1
-0.416135,3.698359,11.78634,0.005771,0.651308,0.06803,36:06.9,1
-0.43784,2.300416,13.988411,0.449074,-0.018553,0.097514,36:07.0,1
-0.908311,2.282903,8.937464,-0.17462,-0.259846,0.118324,36:07.1,1
-0.438289,1.70226,8.827294,0.012743,0.217689,0.125541,36:07.2,1
-0.724194,2.422862,6.723868,-0.148689,-0.062113,0.062631,36:07.3,1
-0.672851,3.298541,7.771539,-0.163457,-0.206039,0.023588,36:07.4,1
-0.298779,3.784281,10.089169,-0.182756,-0.364092,-0.194169,36:07.5,1
-0.4326,4.053121,12.547358,-0.655126,-0.743248,-0.458625,36:07.6,1
-0.578996,0.92792,10.264605,0.440038,-0.000863,0.472892,36:07.7,1
0.063917,1.244512,9.614507,0.101093,0.758345,-0.577316,36:07.8,1
-0.495021,2.409539,7.128476,0.249616,0.052288,-0.039969,36:07.9,1
-0.694256,2.66895,8.121362,0.074175,0.080327,0.131282,36:08.0,1
-0.550405,3.582949,8.721613,0.031664,0.210091,0.316786,36:08.1,1
0.109872,3.815715,10.319989,0.125664,0.075556,0.149551,36:08.2,1
0.22618,3.045417,14.180162,-0.374838,-0.835446,-0.606588,36:08.3,1
-0.945584,1.621877,9.536519,-0.389964,0.25106,0.119403,36:08.4,1
-1.066233,0.942889,9.748478,0.223771,-0.05017,0.183578,36:08.5,1
-0.053139,1.889521,7.863897,0.307824,-0.270735,-0.212523,36:08.6,1
-0.076491,2.573598,8.696615,0.022073,-0.33416,-0.655468,36:08.7,1
-0.578547,2.983446,9.035511,0.030133,-0.330999,-0.533631,36:08.8,1
-0.837508,3.373385,9.986034,-0.159476,-0.276443,-0.291451,36:08.9,1
-1.169219,1.88503,9.775572,0.410976,-0.103519,-0.181071,36:09.0,1
-0.244142,2.392625,9.721384,-0.087816,-0.082633,0.054593,37:06.0,1
0.234113,2.107917,9.440568,-0.068892,0.033944,0.062769,37:06.1,1
-0.09595,2.237098,9.625284,-0.042846,0.063476,0.104441,37:06.2,1
-1.078507,2.783462,9.153615,-0.017837,0.18647,0.160712,37:06.3,1
-1.266965,2.765499,9.67513,-0.074534,0.07325,0.141105,37:06.4,1
-0.57705,3.306324,8.667875,-0.168112,0.1409,0.282505,37:06.5,1
-0.754431,2.955304,9.355246,-0.098688,-0.096235,0.237339,37:06.6,1
-0.546364,3.451523,8.525222,-0.124359,-0.123737,0.193128,37:06.7,1
-0.450563,3.360811,9.101224,-0.161371,-0.094648,0.165855,37:06.8,1
-0.463586,2.653981,10.97877,-0.34781,0.157462,0.121143,37:06.9,1
-0.82254,1.204246,12.456347,-0.126179,-0.180272,0.024027,37:07.0,1
-0.088765,1.409918,9.020093,0.443637,0.027462,-0.213235,37:07.1,1
0.11047,1.295706,9.536968,0.213918,0.091715,-0.139411,37:07.2,1
0.472867,1.571732,7.311396,0.188772,0.038573,-0.17628,37:07.3,1
0.120799,2.290537,8.090526,-0.068155,0.049916,-0.118488,37:07.4,1
-0.444276,2.558779,10.316846,-0.344857,0.089176,0.102683,37:07.5,1
-1.758244,2.765798,11.308983,-0.179351,0.171406,0.117385,37:07.6,1
0.03383,0.290246,10.158924,0.227598,-0.284614,-0.059288,37:07.7,1
-1.680256,0.537083,12.035572,0.107989,-0.239339,0.51686,37:07.8,1
-0.334704,1.588646,6.671626,0.163342,-0.104677,0.41633,37:07.9,1
0.145797,2.094594,7.170838,-0.040034,-0.14234,0.228563,37:08.0,1
0.100741,2.744692,8.937015,0.015794,-0.118556,0.023214,37:08.1,1
0.090412,2.584675,12.264296,0.056453,-0.497423,-0.204254,37:08.3,1
-0.157473,0.750839,13.946199,0.082032,0.038443,-0.284147,37:08.4,1
-0.465233,1.071172,10.236014,0.097963,0.333777,-0.426025,37:08.5,1
-0.10583,1.407972,7.146888,0.047312,0.011731,-0.239249,37:08.6,1
-0.150287,2.323468,7.117549,-0.088699,0.346179,0.136236,37:08.7,1
0.359702,2.201622,8.409812,-0.014801,-0.032651,0.02737,37:08.8,1
-0.888103,1.568887,13.809234,0.067203,-0.191206,0.014373,37:08.9,1
-1.422043,0.622106,14.288088,-0.23423,-0.591115,0.296287,37:09.0,1
-2.295776,1.263972,11.419603,0.15927,0.262451,0.433358,37:09.1,1
-0.017065,1.308579,5.70329,0.1211,-0.009643,0.339802,37:09.2,1
-0.116308,2.197131,7.067403,-0.100664,-0.058617,0.323387,37:09.3,1
-0.09131,2.714455,8.514594,0.113155,-0.020813,-0.09276,37:09.4,1
0.049996,2.693499,12.136761,-0.132606,-0.507057,-0.214297,37:09.5,1
-0.381856,0.362247,15.055093,0.109731,-0.000937,-0.359318,37:09.6,1
-0.910856,1.124761,10.913056,0.146674,0.111745,-0.449694,37:09.7,1
-0.251926,1.207539,7.581434,0.185968,-0.082195,-0.256596,37:09.8,1
-0.035626,1.999392,6.719976,0.07815,0.223965,0.0712,37:09.9,1
0.544118,2.610571,8.283774,-0.023965,0.072987,0.005354,37:10.0,1
-0.441282,1.878593,12.323124,-0.083312,-0.115311,-0.069187,37:10.1,1
-1.686693,0.311053,14.67159,-0.223252,-0.685497,0.156575,37:10.2,1
-2.371369,2.079476,10.727442,-0.053237,0.757141,0.523684,37:10.3,1
-0.036674,1.228495,6.88149,-0.113165,-0.38647,0.276511,37:10.4,1
-0.515378,1.966012,6.868617,-0.151629,-0.151518,0.106901,37:10.5,1
-0.671204,2.235601,8.587792,-0.06429,-0.225597,0.022748,37:10.6,1
-0.703537,2.261946,12.122541,-0.201963,-0.247034,-0.018159,37:10.7,1
-0.956062,0.78856,14.871724,-0.058773,-0.084626,0.092124,37:10.8,1
-0.209115,0.419428,10.386152,0.099955,0.242551,-0.204041,37:10.9,1
-0.30297,1.115929,7.211553,0.206399,0.044365,-0.335196,37:11.0,1
0.002994,1.571582,7.002887,0.088509,0.097634,0.078814,37:11.1,1
0.495619,2.044748,8.525222,0.022142,0.096938,0.136456,37:11.2,1
-0.157922,1.820514,12.707674,-0.13402,-0.020705,0.038654,37:11.3,1
-2.097738,1.280138,15.480209,-0.31583,-0.022919,0.299116,37:11.4,1
-2.127975,1.530567,9.973161,0.299129,0.944855,0.300417,37:11.5,1
0.142204,0.950673,6.495293,0.035145,-0.412284,0.2018,37:11.6,1
-0.299078,2.025737,7.351213,0.00221,-0.081639,0.092089,37:11.7,1
-0.777633,2.237697,8.363708,0.120302,0.009303,0.024188,37:11.8,1
-0.409698,3.432213,9.30525,-0.372548,0.008965,0.202008,37:11.9,1
-0.595013,2.765349,12.468621,-0.534618,0.214344,0.097514,37:12.0,1
-0.186812,0.551753,11.703862,0.230674,-0.415475,-0.346512,37:12.1,1
-0.108225,0.891097,9.017698,0.298538,0.125825,-0.45778,37:12.2,1
0.097148,1.163231,7.893236,0.425256,0.200163,-0.326416,37:12.3,1
0.570763,1.576522,7.188352,0.194009,0.219695,-0.165411,37:12.4,1
-0.104632,2.668052,9.631272,-0.049213,-0.014715,-0.101416,37:12.5,1
-0.856369,2.823878,11.15166,0.167526,0.235839,-0.35818,37:12.6,1
-1.347049,0.170795,13.005854,-0.041186,-1.037563,-0.189178,37:12.7,1
-1.839375,0.810864,11.329939,0.335212,0.179689,0.192218,37:12.8,1
-0.085622,0.550256,9.576186,-0.007453,-0.177199,0.338123,37:12.9,1
-0.849633,1.826202,8.108189,0.116348,0.089468,-0.070164,37:13.0,1
-0.993783,1.162333,10.062525,0.115703,-0.219387,-0.247879,37:13.1,1
-0.628842,1.095572,10.131681,-0.009473,-0.496926,-0.515215,37:13.2,1
-1.457369,2.19264,10.082883,0.056907,-0.238407,-0.786244,37:13.3,1
-0.234113,1.466351,9.852512,-0.072593,-0.225419,-0.388122,37:13.4,1
0.375868,0.688867,6.823261,0.787402,0.897543,-0.691236,37:13.5,1
-0.643212,2.102378,9.733958,-0.027699,0.012468,0.053556,38:02.8,1
-0.05269,1.628763,9.653426,0.038921,0.081755,0.086604,38:02.9,1
-0.334854,1.80794,9.520801,-0.096166,0.041725,0.216018,38:03.0,1
-0.298779,1.808839,9.73785,-0.094336,-0.03656,0.167455,38:03.1,1
-0.655637,1.663191,9.513018,-0.003679,0.030652,0.138039,38:03.2,1
-1.399739,2.012715,9.783505,-0.099453,0.065086,0.202316,38:03.3,1
-0.651445,2.974016,8.725805,-0.127564,0.130341,0.382633,38:03.4,1
-0.343386,2.50534,9.092841,-0.169818,-0.005589,0.335477,38:03.5,1
-0.409698,2.492766,9.248667,-0.096975,-0.10525,0.204736,38:03.6,1
-0.385898,2.715503,9.589958,0.184411,-0.153492,0.048951,38:03.7,1
-0.202679,2.562521,11.003169,-0.344496,-0.236283,-0.02921,38:03.8,1
-0.415087,0.899779,12.662019,0.477369,0.05544,-0.211575,38:03.9,1
-0.06736,0.721649,10.029144,0.25446,0.072145,-0.162018,38:04.0,1
0.433499,1.073717,8.795859,0.060124,-0.06462,-0.157733,38:04.1,1
0.61073,1.427581,7.486532,0.148944,0.056555,-0.237217,38:04.2,1
-0.006586,2.269131,7.858508,0.004183,0.011004,-0.017503,38:04.3,1
0.034279,3.237917,9.574689,0.008459,-0.011332,-0.104407,38:04.4,1
-0.623154,3.131787,11.257041,-0.736,-0.059642,0.56997,38:04.5,1
-0.679437,0.138462,11.657608,0.197556,0.271818,0.392418,38:04.6,1
-1.963467,0.541723,11.138637,0.142101,-0.215751,0.482365,38:04.7,1
-0.017214,1.590592,6.55906,-0.025656,0.096246,0.385446,38:04.8,1
0.118254,2.412084,7.455546,-0.183429,-0.158246,0.281797,38:04.9,1
0.701591,2.763853,8.485255,-0.249763,0.085105,0.063974,38:05.0,1
0.141156,2.359094,12.829221,-0.502379,-0.049384,-0.190127,38:05.1,1
-0.070952,0.767454,15.319443,0.399438,-0.169223,-0.59645,38:05.2,1
-0.23067,0.947679,10.566527,0.229171,-0.142783,-0.486011,38:05.3,1
-0.121697,1.574276,7.322772,0.327476,0.0251,-0.257029,38:05.4,1
-0.038171,1.973496,6.274352,0.028776,0.249513,0.151356,38:05.5,1
0.47137,2.031875,8.669222,-0.259564,0.453066,0.199248,38:05.6,1
-0.468376,1.530268,13.202096,-0.395079,0.496502,0.102144,38:05.7,1
-1.532363,0.665217,14.870826,0.249027,0.15045,0.12267,38:05.8,1
-1.732198,1.322949,11.10825,-0.090313,-0.429595,0.483926,38:05.9,1
0.179626,1.106649,6.739585,0.091455,-0.008122,0.25958,38:06.0,1
-0.18292,2.620451,6.868317,0.123101,-0.000378,0.162874,38:06.1,1
-0.151036,2.895279,8.503667,-0.247778,-0.012409,0.119851,38:06.2,1
0.329465,2.370171,12.904964,-0.477605,0.27797,-0.043872,38:06.3,1
0.12035,0.281115,13.728252,0.032094,0.261976,-0.399629,38:06.4,1
-0.198637,0.905168,11.378139,0.178648,-0.274724,-0.262644,38:06.5,1
0.257315,1.620979,6.186785,0.180767,0.176079,-0.051019,38:06.6,1
0.461341,1.879941,6.909332,0.205235,0.168038,0.013914,38:06.7,1
0.942141,2.613864,8.534802,-0.012167,0.260231,0.0574,38:06.8,1
-0.002994,2.197879,12.135115,-0.605304,0.65117,0.450675,38:06.9,1
-0.975072,-0.051194,13.202845,0.272915,0.827315,0.153046,38:07.0,1
-1.967658,1.515149,12.962594,-0.010039,-0.653434,0.412555,38:07.1,1
0.479603,1.734892,6.160888,0.047849,-0.005606,0.173531,38:07.2,1
-0.152982,2.340683,7.020401,0.109688,-0.000202,0.024189,38:07.3,1
-0.193248,3.041525,7.976014,-0.35472,0.062055,0.153812,38:07.4,1
0.578098,2.363286,13.273498,-0.654877,0.381742,0.052391,38:07.5,1
-0.222138,-0.058528,14.737004,0.002689,-0.030552,-0.370558,38:07.6,1
-0.349224,0.798739,11.189082,0.192223,-0.226971,-0.396192,38:07.7,1
0.136815,1.370849,6.725365,0.292481,0.235937,-0.310333,38:07.8,1
0.103285,1.989213,6.801406,0.086814,0.136492,-0.058598,38:07.9,1
0.760568,2.669698,8.512947,-0.271047,0.372836,0.128356,38:08.0,1
-0.834515,2.02469,12.641662,-0.698862,0.34789,0.464992,38:08.1,1
-0.71177,0.159418,12.794194,0.280374,0.839993,-0.002386,38:08.2,1
-2.211501,1.251697,14.303506,0.285057,-0.992748,0.211542,38:08.3,1
0.194446,1.917513,4.849016,0.114779,0.117832,0.271103,38:08.4,1
0.037272,1.921704,6.966214,-0.037819,0.159523,0.097637,38:08.5,1
-0.366887,2.691852,8.842711,-0.164221,-0.100631,0.029191,38:08.6,1
-0.172292,2.936743,11.367361,-0.64721,-0.267049,-0.099739,38:08.7,1
0.040416,1.079555,14.434483,0.092831,-0.131305,-0.437205,38:08.8,1
0.058229,0.419128,10.900183,0.160445,-0.001056,-0.544507,38:08.9,1
0.087568,1.22131,7.547904,0.181892,0.440399,-0.233827,38:09.0,1
0.059426,1.501827,8.009095,0.002353,0.102476,-0.015437,38:09.1,1
0.295785,2.297273,8.402477,-0.052136,0.275193,0.080841,38:09.2,1
-0.040117,2.573149,10.686427,0.107823,-0.101062,-0.172457,38:09.3,1
-1.342259,2.209855,12.578942,-0.364182,-0.18894,0.009016,38:09.4,1
-1.123564,-0.290396,10.577304,0.632544,0.643224,0.03388,38:09.5,1
-1.714535,1.108744,10.505454,0.388373,0.112145,0.250862,38:09.6,1
-0.678689,1.152453,8.928783,0.168934,-0.329773,-0.154668,38:09.7,1
-0.969085,2.542014,8.560848,0.41302,0.003502,-0.497234,38:09.8,1
-1.057701,2.281406,8.901689,0.098946,-0.411067,-0.604602,38:09.9,1
-1.695524,3.538192,8.034243,-0.214321,-0.411053,-0.523615,38:10.0,1
-0.778381,2.506687,9.521999,-0.018598,-0.126133,0.028747,39:13.6,1
-0.383353,2.420018,9.227861,-0.106981,-0.202907,0.065772,39:13.7,1
-0.160167,2.276316,9.965377,-0.208145,-0.180374,-0.020534,39:13.8,1
0.821641,2.319277,8.155042,0.187279,-0.261542,-0.070446,39:13.9,1
0.181572,2.672842,10.140513,-0.242828,0.05138,0.039792,39:14.0,1
0.57226,2.969675,8.742121,-0.42112,-0.488368,-0.014499,39:14.1,1
0.436343,2.660567,9.09359,-0.465817,-0.206899,0.140805,39:14.2,1
1.164728,1.950743,9.340726,-0.332131,0.081569,0.509952,39:14.3,1
1.036744,1.907783,10.230027,-0.122636,0.309244,0.236874,39:14.4,1
0.414638,2.023043,11.785741,0.238299,0.303488,0.041082,39:14.5,1
0.436642,0.613424,11.206745,-0.01811,0.005947,0.013494,39:14.6,1
-1.015339,0.24549,10.710677,0.404025,0.347459,0.123516,39:14.7,1
0.013173,1.185535,7.425159,0.538591,-0.582019,0.270523,39:14.8,1
0.229323,1.542692,7.650141,0.12872,0.091431,0.608575,39:14.9,1
0.873883,2.182761,7.541467,-0.125864,-0.120515,0.387884,39:15.0,1
1.170566,2.744243,9.312884,-0.113461,-0.027099,0.07886,39:15.1,1
1.153352,1.815874,12.769047,-0.179463,-0.082028,-0.113028,39:15.2,1
0.786465,0.607587,14.133908,-0.062382,-0.313485,-0.446995,39:15.3,1
0.176932,0.957409,10.819201,0.564644,-0.055059,-0.62541,39:15.4,1
0.530347,1.592089,6.353388,0.31201,-0.42772,-0.458875,39:15.5,1
0.38934,2.186353,6.930288,0.395297,0.196042,-0.322611,39:15.6,1
0.861459,2.66386,8.581355,0.121953,0.186452,0.027174,39:15.7,1
0.427212,2.186952,12.256512,-0.191434,0.192732,0.104379,39:15.8,1
0.381257,0.809966,14.309793,-0.306433,-0.320336,-0.19958,39:15.9,1
-1.241967,2.309398,11.253149,0.498951,-0.274509,-0.397559,39:16.0,1
0.733026,1.514401,5.795349,0.193632,-0.394235,0.707812,39:16.1,1
0.911904,2.432142,6.783444,0.278389,0.206155,0.416899,39:16.2,1
1.144071,3.038531,8.481812,-0.024943,0.173368,0.166387,39:16.3,1
1.113534,3.174748,11.843072,-0.002905,-0.024492,-0.106794,39:16.4,1
0.597857,1.637146,14.013259,-0.254172,-0.340936,-0.351204,39:16.5,1
0.637225,1.460064,11.622431,0.351521,-0.180933,-0.59047,39:16.6,1
0.402663,1.878294,6.735843,0.231991,-0.190464,-0.653762,39:16.7,1
0.427511,2.571353,6.22241,0.321184,0.072748,-0.632205,39:16.8,1
0.4811,2.767894,8.774603,0.244052,0.413813,-0.144928,39:16.9,1
-0.427511,2.19294,12.592713,-0.212677,0.259738,0.161117,39:17.0,1
-0.479154,1.790427,13.16153,-0.319913,-0.225341,-0.05185,39:17.1,1
-1.608106,1.935775,12.55604,-0.040259,-0.13337,-0.113658,39:17.2,1
0.104632,1.749412,6.307134,-0.022556,-0.621225,0.239437,39:17.3,1
0.190554,2.182611,6.547085,0.096344,-0.010349,0.267475,39:17.4,1
0.151635,2.733316,8.61279,-0.057515,0.084962,0.159749,39:17.5,1
0.255968,3.135979,11.667936,0.01206,-0.026652,0.00163,39:17.6,1
0.286205,1.689237,13.691429,-0.243265,-0.514731,-0.201435,39:17.7,1
0.046104,1.424737,11.83439,0.254714,-0.058407,-0.404039,39:17.8,1
-0.005988,1.810036,7.702083,0.080621,-0.217467,-0.337687,39:17.9,1
0.400567,1.997297,6.778803,0.313242,0.042527,-0.179127,39:18.0,1
1.161435,2.151775,8.149353,0.119324,0.118008,0.101347,39:18.1,1
0.181423,2.132016,12.575649,-0.138113,0.303825,0.010819,39:18.2,1
-1.344803,4.323908,12.867542,0.16015,-0.286579,-0.463334,39:18.3,1
-0.868943,1.747766,10.195748,-0.368959,-0.739724,0.327483,39:18.4,1
0.130678,1.079405,7.070397,0.160807,0.054571,0.496935,39:18.5,1
0.210163,2.179767,7.466623,0.183316,0.144356,0.280146,39:18.6,1
0.270338,2.542014,8.267907,-0.096087,-0.064911,0.198697,39:18.7,1
0.416883,3.343148,9.542506,-0.044448,-0.087084,-0.063659,39:18.8,1
0.178878,3.355123,12.59436,-0.349091,-0.034106,0.008012,39:18.9,1
0.736618,1.186582,9.988579,-0.01586,-0.119913,0.05601,39:19.0,1
0.584534,0.699346,9.06949,0.127566,0.289403,-0.366692,39:19.1,1
0.29324,1.815724,7.195387,0.187468,0.022159,-0.535524,39:19.2,1
0.479752,2.37541,7.491471,0.225027,0.021563,-0.280369,39:19.3,1
0.500709,2.802622,9.793534,-0.044344,0.061265,0.049456,39:19.4,1
-0.001946,3.065326,10.359358,-0.320958,0.034784,0.141058,39:19.5,1
0.055085,-0.618663,11.366763,-0.816911,0.559675,0.42868,39:19.6,1
-1.950294,1.484613,11.797118,0.713585,0.531146,-0.474705,39:19.7,1
-0.000748,1.924099,7.36723,0.073473,-0.510372,0.461103,39:19.8,1
-0.169148,3.055296,8.038135,0.095695,-0.102062,0.25081,39:19.9,1
-0.198338,3.098856,9.174721,-0.007572,0.024302,0.261077,39:20.0,1
0.057181,2.877915,9.22816,0.195158,-0.147987,0.110461,39:20.1,1
1.002914,2.088906,10.292147,0.172417,-0.475314,0.185288,39:20.2,1
0.511935,0.048799,11.539803,0.155139,0.337728,-0.060915,39:20.3,1
0.468376,0.984054,9.936786,-0.365603,-0.286199,-0.313149,39:20.4,1
-0.574056,2.527943,8.371342,-0.488696,-0.37796,-0.399791,39:20.5,1
0.227527,1.887874,9.105715,0.226291,0.206697,0.137769,39:20.6,1
-0.179177,2.05822,9.572893,-0.176809,-0.172455,0.060815,40:15.0,1
-0.210163,2.083218,9.517209,-0.614864,-0.464733,0.006241,40:15.1,1
-0.054337,2.21225,9.478889,-0.009634,0.007243,0.030647,40:15.2,1
-0.030237,2.225123,9.550889,0.010885,0.056695,0.037315,40:15.3,1
-0.324825,2.320774,9.467812,0.025094,0.030106,0.003899,40:15.4,1
-0.684976,2.355951,8.589139,-0.053172,0.064536,0.118679,40:15.5,1
-1.395548,2.711761,10.724149,-0.07922,0.045119,0.122985,40:15.6,1
-0.776286,3.073858,8.453221,-0.159312,0.178173,0.13855,40:15.7,1
-0.685125,2.802323,9.466015,-0.058917,-0.022359,-0.047484,40:15.8,1
-0.824635,3.251239,8.5598,-0.237709,-0.057852,0.079849,40:15.9,1
-0.569715,3.157384,9.372759,-0.057227,-0.070592,0.088569,40:16.0,1
-0.285905,3.175197,10.547516,-0.190625,-0.221761,0.113485,40:16.1,1
-0.174088,1.033152,13.380076,-0.130116,-0.359719,0.099565,40:16.2,1
1.231938,0.219893,9.630673,-0.718676,-0.377164,0.04305,40:16.3,1
0.752485,0.90891,7.922575,0.246067,-0.429874,-0.04088,40:16.4,1
0.248483,1.777554,6.901398,0.584957,0.062263,-0.316347,40:16.5,1
0.274529,2.594854,8.423433,0.333664,0.091356,-0.258179,40:16.6,1
0.011227,3.569777,8.506211,-0.123125,0.12121,-0.10717,40:16.7,1
-0.032932,3.592829,11.676319,0.128453,0.264922,0.040746,40:16.8,1
-0.239352,1.883683,14.377751,0.064002,0.228726,0.36414,40:16.9,1
-0.393532,1.378184,11.232043,-0.032506,0.490439,0.36591,40:17.0,1
0.444576,1.320255,7.023844,0.418864,-0.222531,0.264369,40:17.1,1
0.037871,2.052382,6.889274,0.354952,-0.190297,0.307565,40:17.2,1
0.181123,2.828967,8.911568,0.12319,0.050621,-0.018911,40:17.3,1
0.073048,3.583099,10.551708,-0.440319,-0.162665,-0.182637,40:17.4,1
0.650397,2.275867,12.040811,0.002488,-0.127329,-0.323325,40:17.5,1
0.377515,1.033002,10.451865,-0.179656,-0.342764,-0.052833,40:17.6,1
0.234263,1.024769,8.565937,-0.005412,-0.033614,-0.15943,40:17.7,1
0.00015,1.810934,6.372548,-0.170427,0.050873,-0.337748,40:17.8,1
-0.097747,2.312092,8.507558,0.218066,0.246937,-0.338734,40:17.9,1
-0.39443,3.183879,10.317594,-0.014151,0.299244,-0.165877,40:18.0,1
-0.709974,2.955604,10.27164,0.15832,0.041835,0.093836,40:18.1,1
-0.320783,1.210832,10.1706,0.019584,-0.090951,0.268494,40:18.2,1
-0.588875,0.946482,9.65627,-0.618382,-0.071925,0.422993,40:18.3,1
0.238304,1.43312,6.797215,-0.202904,0.123252,0.09137,40:18.4,1
-0.222737,2.134411,8.13184,-0.071217,-0.337085,0.205247,40:18.5,1
-0.273032,2.728526,9.140143,-0.068807,-0.14141,0.012674,40:18.6,1
0.225581,2.446063,10.799892,0.008795,-0.099212,-0.100534,40:18.7,1
0.236658,0.383503,12.144994,-0.375099,-0.155917,-0.093524,40:18.8,1
0.647104,0.300126,10.363848,-1.114651,-0.142345,-0.242644,40:18.9,1
0.117356,1.554667,7.098089,0.189284,-0.038754,-0.001524,40:19.0,1
-0.044757,1.886078,7.302415,0.359376,0.352303,-0.195962,40:19.1,1
0.59172,2.682871,8.652757,0.179898,0.236233,-0.067879,40:19.2,1
0.382754,2.497706,12.16146,0.042104,0.017323,0.000176,40:19.3,1
-0.696951,1.293909,14.848822,-0.141212,0.195732,0.209043,40:19.4,1
-0.847238,0.757874,11.450888,0.156793,0.454771,0.248329,40:19.5,1
0.545765,1.070125,7.449259,0.586357,-0.017067,0.196956,40:19.6,1
0.387993,1.661844,7.06426,0.268089,-0.424196,0.395016,40:19.7,1
0.356409,2.066752,8.389155,0.048819,-0.058135,0.082418,40:19.8,1
0.001647,2.333647,11.35823,-0.228661,-0.174404,-0.078028,40:19.9,1
0.270937,0.807571,15.118561,-0.099616,-0.055941,-0.277852,40:20.0,1
0.85592,0.510588,9.779164,-0.308164,-0.116741,-0.196897,40:20.1,1
0.179926,0.983605,8.059839,0.771039,0.047399,-0.18647,40:20.2,1
0.096549,1.690435,6.925498,-0.204309,0.029263,-0.364825,40:20.3,1
0.470472,2.21704,8.052056,0.130601,0.123129,-0.182737,40:20.4,1
-0.219743,2.391277,12.634177,0.048838,0.03778,-0.020878,40:20.5,1
-0.972079,2.531835,12.04605,-0.244963,0.218021,0.0922,40:20.6,1
0.190853,0.743953,9.088949,0.151613,-0.200354,0.098519,40:20.7,1
-0.376916,0.670755,9.022039,-0.228212,-0.756159,0.382549,40:20.8,1
0.536335,1.084644,7.33325,0.144927,0.426019,0.215103,40:20.9,1
-0.027094,2.230661,8.243058,-0.308751,-0.377399,0.110887,40:21.0,1
0.122296,2.85621,9.302555,-0.000665,-0.067257,-0.115183,40:21.1,1
0.127834,2.508633,11.424243,-0.015434,-0.188671,-0.222205,40:21.2,1
0.0961,0.213456,14.331198,-0.129965,-0.120388,-0.18383,40:21.3,1
0.898132,0.429906,9.604328,-0.723948,-0.310574,-0.222209,40:21.4,1
-0.072898,1.348097,8.160879,0.799694,0.05858,-0.077464,40:21.5,1
-0.141606,1.825454,7.685169,0.183792,0.197415,-0.343738,40:21.6,1
0.361199,2.708468,8.538843,0.188548,0.198409,-0.109711,40:21.7,1
-0.435145,3.077151,10.185419,0.031492,0.028904,0.023198,40:21.8,1
-1.170865,2.523602,10.614128,0.085437,0.355359,0.121202,40:21.9,1
-0.920586,1.414109,9.358239,0.018851,0.004026,0.175056,40:22.0,1
-1.199605,0.841251,9.798025,-0.391009,-0.086608,0.512081,40:22.1,1
-0.180375,1.717678,8.105495,-0.099931,0.459814,0.429293,40:22.2,1
-0.274679,2.205214,9.254805,-0.138062,-0.113136,0.298861,41:39.7,1
-0.238304,2.089804,9.644295,-0.045978,0.113541,0.044773,41:39.8,1
-0.385598,2.146087,9.786948,0.05979,-0.045803,-0.034,41:39.9,1
-0.451761,2.190994,9.369616,-0.053516,-0.004817,0.019317,41:40.0,1
-0.425715,2.146536,9.486523,-0.030261,0.019187,0.0195,41:40.1,1
-0.445324,2.312092,9.4732,0.045356,-0.000665,0.012522,41:40.2,1
-0.559986,2.324067,9.650881,-0.006107,0.025235,0.036438,41:40.3,1
-1.237177,2.516118,9.593101,-0.079009,0.006975,0.067818,41:40.4,1
-0.421673,2.691403,8.781189,-0.14316,-0.062431,0.062196,41:40.5,1
-0.426763,2.835104,9.143137,-0.093406,0.133187,0.096414,41:40.6,1
-0.37976,3.003804,9.105715,-0.212982,-0.059223,0.070844,41:40.7,1
-0.26944,3.182532,9.489217,-0.188891,0.047441,0.087032,41:40.8,1
-0.775238,3.133434,10.532697,-0.221238,-0.154037,0.001169,41:40.9,1
-0.739462,1.498983,12.080628,-0.208344,-0.200084,-0.058467,41:41.0,1
-0.079185,0.729283,11.335927,0.116105,0.108737,-0.087482,41:41.1,1
0.013023,0.890947,9.292077,-0.532866,-0.247895,0.088799,41:41.2,1
-0.462538,1.596281,8.175998,-0.153111,-0.180263,0.059658,41:41.3,1
-0.563428,2.304757,7.272477,0.394209,0.046944,-0.189811,41:41.4,1
-0.24998,3.034789,8.284223,0.209585,0.118952,-0.148782,41:41.5,1
-0.521066,3.340903,10.597363,0.074657,0.078941,0.122199,41:41.6,1
-1.422342,3.347489,11.208392,-0.041204,0.041173,0.286973,41:41.7,1
-0.069007,1.186433,10.218351,-0.000734,0.242037,0.341612,41:41.8,1
-1.063089,1.371298,9.248817,0.251103,0.171853,0.203218,41:41.9,1
0.457299,1.455124,7.260053,-0.323143,-0.863607,0.491399,41:42.0,1
0.074695,2.436483,7.226822,0.691647,0.408839,0.397833,41:42.1,1
-0.103136,3.178041,9.191486,-0.231828,-0.235413,0.386759,41:42.2,1
0.198038,3.048411,11.500734,-0.014856,-0.049876,-0.017614,41:42.3,1
0.172591,1.263972,13.651611,-0.19669,-0.102937,-0.136141,41:42.4,1
0.92822,0.635129,10.355166,-0.3482,-0.272132,-0.151178,41:42.5,1
-0.277822,1.786984,7.063661,-0.827911,-0.305817,-0.294073,41:42.6,1
-0.042961,2.204017,7.042705,-0.051377,-0.145031,-0.3103,41:42.7,1
0.118703,2.843038,8.096962,0.433769,0.319302,-0.604825,41:42.8,1
-0.392783,2.701432,12.552447,-0.078782,0.051087,-0.164841,41:42.9,1
-0.568667,1.150058,14.884597,-0.02843,0.058846,0.013313,41:43.0,1
-1.107547,1.221011,11.667487,-0.219333,0.236559,0.265091,41:43.1,1
0.202679,1.142275,7.218888,-0.779057,0.147139,0.264515,41:43.2,1
0.410446,1.833986,6.467002,0.358922,0.35061,0.101571,41:43.3,1
0.377216,2.398911,8.38646,0.074994,-0.490959,0.468444,41:43.4,1
0.131876,2.595303,11.580668,0.330805,-0.070957,0.118887,41:43.5,1
0.39413,1.765578,13.833483,-0.041901,-0.23338,0.030703,41:43.7,1
0.801733,0.979114,10.211765,-0.140231,-0.104811,-0.136973,41:43.8,1
0.683329,0.890349,7.230863,-0.344003,-0.142905,-0.117301,41:43.9,1
0.08637,2.112407,6.867419,0.79177,-0.05051,-0.294571,41:44.0,1
0.004042,2.552193,8.215665,0.149725,-0.132337,-0.379253,41:44.1,1
-0.215701,3.304678,10.869497,0.208393,0.312309,-0.319347,41:44.2,1
-0.424368,3.417094,10.594968,0.074808,0.259014,-0.068578,41:44.3,1
0.027243,1.488654,8.935668,0.052975,0.332009,0.212466,41:44.4,1
-0.287851,1.037942,9.327853,0.185563,-0.229045,0.114137,41:44.5,1
0.743204,1.538201,6.231691,0.327947,-0.558956,0.434257,41:44.6,1
0.249082,2.321373,7.594158,0.117808,-0.151975,0.385939,41:44.7,1
0.219294,3.051105,8.950487,0.259592,-0.154137,0.074727,41:44.8,1
0.306862,3.006199,11.212284,-0.105961,-0.06364,-0.064521,41:44.9,1
0.518522,0.814905,11.476185,-0.058168,-0.134442,-0.273543,41:45.0,1
0.839604,0.290246,10.332563,-0.172252,-0.06305,-0.089291,41:45.1,1
-0.180225,1.64957,7.177424,0.092372,-0.160412,-0.223368,41:45.2,1
-0.272433,1.948199,7.763306,-0.458342,-0.186309,-0.219935,41:45.3,1
0.367037,2.923271,8.151,0.193486,0.306188,-0.523741,41:45.4,1
0.357906,2.604434,12.160712,-0.061973,0.299688,-0.02925,41:45.5,1
-0.595162,1.287473,14.035114,0.073766,-0.003584,0.217172,41:45.6,1
-0.818498,0.94244,11.530672,-0.241554,-0.057075,0.413249,41:45.7,1
0.68273,0.992287,7.518565,-0.55949,0.336884,0.395494,41:45.8,1
0.640817,1.777404,6.667884,0.195469,0.329556,0.26697,41:45.9,1
0.328716,2.425855,8.691227,-0.038012,-0.683331,0.365075,41:46.0,1
0.344134,2.804418,10.467732,0.258001,0.035736,-0.079292,41:46.1,1
0.492476,1.455124,14.238241,-0.186192,-0.19416,-0.144859,41:46.2,1
0.883163,0.498164,9.407936,-0.169301,-0.178862,-0.223889,41:46.3,1
0.963247,0.470322,8.803343,-0.361588,-0.10637,-0.122667,41:46.4,1
-0.114512,2.046395,6.951993,0.628774,-0.011342,-0.176816,41:46.5,1
0.438139,1.947301,8.459359,-0.363295,-0.196523,-0.474284,41:46.6,1
0.279169,2.947521,8.88672,0.306952,0.350566,-0.372727,41:46.7,1
0.124242,2.720143,10.980117,-0.029818,0.210303,0.094546,41:46.8,1
-1.22161,1.418001,14.287339,0.034625,0.313331,0.090141,41:46.9,1
-0.533491,0.040715,12.302766,-0.132534,0.241765,0.322245,41:47.0,1
0.098944,0.571811,8.312963,-0.360134,0.466424,0.231867,41:47.1,1
-0.183668,0.999621,8.527018,-0.077647,0.075774,-0.089091,41:47.2,1
-0.623304,1.500929,9.358988,0.500897,-0.185561,-0.209508,41:47.3,1
-0.574356,1.702709,8.672964,0.238905,-0.104477,-0.300466,41:47.4,1
0.024998,1.780248,9.357042,0.084976,-0.123939,-0.458715,42:22.8,1
-0.112267,1.903741,9.714499,0.074881,0.02802,-0.586712,42:22.9,1
-0.143851,1.739233,9.612261,-0.070404,0.006874,-0.01745,42:23.0,1
-0.085921,1.895359,9.747131,0.012005,-0.002325,0.038004,42:23.1,1
-0.382006,1.901047,9.614057,0.147624,0.035099,-0.023985,42:23.2,1
-0.865949,2.152224,9.878707,-0.126879,-0.023106,0.103556,42:23.3,1
-0.677042,2.678081,8.98312,-0.094203,-0.213554,0.078828,42:23.4,1
-0.218546,2.549199,8.978479,-0.047451,0.337273,0.169923,42:23.5,1
-0.387394,2.699337,8.891809,-0.143809,-0.093152,0.079532,42:23.6,1
-0.122894,2.910547,8.880433,-0.106426,0.028369,0.151486,42:23.7,1
-0.115709,2.920577,10.814711,-0.057822,-0.033365,0.075735,42:23.8,1
-0.262853,1.440155,13.085489,-0.165444,-0.222015,0.04823,42:23.9,1
0.49053,0.555645,10.463391,0.141224,-0.044968,-0.00672,42:24.0,1
0.8417,0.493823,8.260273,-0.442439,-0.319714,-0.072046,42:24.1,1
0.211211,1.229094,8.223749,0.390341,-0.241505,-0.190621,42:24.2,1
0.445773,1.944456,7.830965,-0.022224,0.019312,-0.315217,42:24.3,1
0.740809,2.53917,8.859177,0.205523,0.106641,-0.174843,42:24.4,1
0.354164,2.109713,12.380006,-0.245739,0.019003,-0.003679,42:24.5,1
-0.563279,0.63947,14.03227,0.015505,0.034768,-0.030713,42:24.6,1
-0.264949,1.194815,10.130633,-0.026563,-0.299236,0.046967,42:24.7,1
0.263901,0.484991,8.110584,-0.512454,-0.504094,0.457816,42:24.8,1
0.226928,1.683549,6.937923,0.098533,0.153702,0.573063,42:24.9,1
0.752186,1.522035,8.896899,-0.019846,-0.22469,0.4384,42:25.0,1
0.873883,2.41418,10.663525,0.034032,0.182756,0.486217,42:25.1,1
1.130749,2.173331,11.341465,0.240746,-0.048453,0.012175,42:25.2,1
1.115031,0.894091,9.911788,0.004262,-0.073481,-0.015472,42:25.3,1
0.41838,0.224084,9.810299,-0.504558,0.124845,-0.196309,42:25.4,1
0.581241,1.585054,7.007528,-0.205703,-0.165627,-0.411879,42:25.5,1
0.67794,2.205514,7.698341,0.302819,-0.01103,-0.362108,42:25.6,1
0.785117,2.355951,10.439142,0.290287,0.226999,-0.186186,42:25.7,1
-0.583786,2.620002,10.737322,0.058304,0.207266,0.052277,42:25.8,1
0.082628,0.318538,10.394984,-0.152359,0.071939,0.117958,42:25.9,1
-0.083077,-0.031435,10.258916,-0.35936,0.213127,-0.016624,42:26.0,1
0.430205,1.716481,7.164851,0.27829,0.366869,-0.094652,42:26.1,1
0.249232,2.050735,8.046667,0.088977,-0.51944,0.313714,42:26.2,1
0.230371,2.786905,9.73321,0.188858,0.06074,0.327079,42:26.3,1
0.900228,1.794019,11.97854,0.124371,0.117738,0.23859,42:26.4,1
1.063538,0.460592,10.961106,-0.322778,-0.088029,0.171807,42:26.5,1
0.745749,0.484542,9.260642,-0.407712,-0.062257,-0.275962,42:26.6,1
0.345482,1.665736,6.187084,0.016177,0.283513,-0.396225,42:26.7,1
0.606389,1.775159,8.577313,0.163194,-0.33788,-0.337442,42:26.8,1
0.608335,2.20701,11.044932,0.28373,0.208394,-0.157999,42:26.9,1
-1.03869,2.609973,11.683354,0.376741,0.156276,0.043139,42:27.0,1
-0.145797,1.185235,8.990005,-0.16252,0.170168,0.260748,42:27.1,1
0.161215,-0.067959,9.69444,-0.655506,0.350784,0.391714,42:27.2,1
0.248483,1.833986,6.925498,-0.009572,0.542891,0.091328,42:27.3,1
-0.068108,1.608405,8.634494,0.152516,-0.330571,0.163916,42:27.4,1
-0.14445,2.617158,10.874436,0.028121,0.008865,0.350813,42:27.5,1
-0.456551,2.358046,12.170292,0.156821,0.147097,0.199081,42:27.6,1
0.582439,0.789009,10.190359,-0.122398,-0.019237,0.069859,42:27.7,1
0.66851,0.497266,8.364905,-0.416132,0.17674,0.074265,42:27.8,1
0.219144,1.629661,7.2855,-0.087068,0.200199,-0.199203,42:27.9,1
0.753234,1.469045,8.440498,0.125855,0.069759,-0.451586,42:28.0,1
0.358804,1.365161,11.775114,0.168771,0.047708,-0.153834,42:28.1,1
-1.863475,2.920277,12.89703,0.130968,0.096613,0.011516,42:28.2,1
-1.264421,1.511108,8.854387,-0.039192,0.081427,-0.096319,42:28.3,1
-0.263302,-0.233514,9.110505,-0.607784,0.241291,0.504033,42:28.4,1
0.158071,1.124162,7.464527,0.426446,0.592153,0.072204,42:28.5,1
-0.251178,1.8997,7.639064,0.099408,-0.387912,0.143774,42:28.6,1
0.018711,2.597548,8.615484,0.153467,0.016861,-0.078293,42:28.7,1
0.719254,1.270109,12.08931,-0.008992,0.044672,-0.06226,42:28.8,1
-0.19714,-0.237556,14.117443,-0.147694,-0.039578,-0.031382,42:28.9,1
-0.195194,0.344733,9.865085,0.024643,-0.736582,-0.628517,42:29.0,1
-0.104632,1.161734,8.334967,0.196698,-0.084844,-0.178045,42:29.1,1
0.326321,1.385968,7.723639,0.270099,0.009419,-0.219443,42:29.2,1
0.161215,2.184408,8.710836,0.360121,0.199948,-0.106412,42:29.3,1
0.126337,2.607877,9.629026,0.264529,0.233998,0.083939,42:29.4,1
-0.584684,2.56312,11.085049,0.115268,-0.067938,0.087968,42:29.5,1
-0.676294,1.802252,9.182804,0.05935,0.151314,0.076038,42:29.6,1
-0.939297,0.579744,9.311237,-0.272468,0.22938,-0.080301,42:29.7,1
-0.648302,0.390089,7.924371,-0.035281,0.346538,-0.168963,42:29.8,1
-0.214354,0.082478,8.74736,-0.123856,-0.12266,0.132772,42:29.9,1
-1.023422,0.316442,11.30539,-0.010778,0.07563,0.00693,42:30.0,1
-1.304238,1.102906,10.735974,-0.126916,-0.052998,-0.131951,42:30.1,1
-1.442401,2.267934,10.184821,-0.101077,-0.07221,-0.239488,42:30.2,1
-0.443079,0.871188,9.461375,-0.016974,0.123645,-0.350271,42:30.3,1
-0.002395,2.167193,9.37246,-0.205786,-0.143213,-0.116754,43:18.0,1
-0.207918,2.505789,9.327853,0.338042,0.493278,-0.178377,43:18.1,1
0.165406,2.302662,9.370963,-0.02482,-0.099169,0.069255,43:18.2,1
0.255219,2.446812,9.27127,0.0181,-0.03285,-0.006119,43:18.3,1
0.160616,2.694996,9.21364,-0.043943,-0.05418,0.001338,43:18.4,1
-0.161963,2.555636,9.586664,-0.031053,-0.039364,-0.111755,43:18.5,1
-0.99558,3.001259,9.284443,-0.099297,-0.10578,-0.07733,43:18.6,1
-1.204246,2.873275,9.741742,-0.057192,0.084765,0.085818,43:18.7,1
-0.699196,3.462899,8.327333,0.022254,0.138562,0.10191,43:18.8,1
-0.404758,3.303929,9.008417,-0.061719,0.185224,0.265974,43:18.9,1
0.01422,3.412603,8.702154,-0.073476,0.08278,0.203997,43:19.0,1
-0.059127,3.941154,9.130413,-0.189605,0.148633,0.282433,43:19.1,1
-0.133373,3.425028,11.341166,-0.150546,-0.072672,0.109007,43:19.2,1
-0.731828,2.738705,11.519745,0.017586,-0.069717,-0.11784,43:19.3,1
0.143102,1.302891,10.643018,-0.1945,-0.214396,0.033673,43:19.4,1
-0.196392,2.401306,9.226513,-0.163916,-0.267487,-0.4233,43:19.5,1
0.548609,1.955833,7.923323,-0.166372,-0.396599,-0.159789,43:19.6,1
0.232916,2.656975,7.213499,0.423348,0.054681,-0.392274,43:19.7,1
0.503703,3.036885,9.107062,0.181456,0.033048,-0.020524,43:19.8,1
0.321382,2.985542,10.736124,0.121517,0.079286,-0.101791,43:19.9,1
-1.424737,3.353925,12.474908,0.062086,0.134251,0.015288,43:20.0,1
-1.732946,2.467918,10.358459,-0.143479,-0.215445,0.071564,43:20.1,1
-0.288151,1.472189,7.180269,-0.028805,0.337635,-0.010991,43:20.2,1
-0.524809,2.763853,6.906338,0.393781,0.224061,-0.129643,43:20.3,1
-0.459993,3.180586,8.456814,-0.00267,-0.428215,0.504923,43:20.4,1
-0.492177,4.018244,9.923763,0.131723,-0.024819,0.313108,43:20.5,1
0.136815,3.526367,11.032059,-0.044953,0.064338,0.309557,43:20.6,1
0.161814,1.694027,10.755584,0.106022,-0.094806,0.065194,43:20.7,1
0.551453,1.658701,8.38661,-0.084607,-0.260275,0.004403,43:20.9,1
0.086969,2.786306,6.982679,0.121379,-0.100909,-0.122296,43:20.9,1
0.289947,2.645748,8.166717,-0.056788,-0.196441,-0.062312,43:21.1,1
-0.204325,3.611091,11.141481,0.321809,0.151635,-0.325329,43:21.2,1
-1.655408,3.952381,12.018358,0.229997,0.27806,0.018884,43:21.3,1
-1.315015,2.774031,9.478589,0.074312,0.364073,-0.068183,43:21.4,1
-0.597258,1.667233,8.261919,-0.129133,0.0929,-0.205992,43:21.5,1
-0.301024,2.415377,6.81892,0.247959,-0.224031,-0.15183,43:21.6,1
-0.389789,2.980302,7.712562,-0.101109,-0.190064,0.390217,43:21.7,1
-0.521216,4.230353,9.262588,-0.075702,-0.159094,0.181203,43:21.8,1
0.234413,3.60166,10.44019,-0.054232,0.039251,0.150107,43:21.9,1
0.364642,1.274001,11.825708,0.132418,-0.109542,-0.144597,43:22.0,1
0.683179,1.313968,8.799601,-0.115771,-0.723512,-0.180301,43:22.1,1
0.319885,2.285148,6.776259,-0.012593,-0.149474,-0.066575,43:22.2,1
0.518522,2.135908,7.957901,-0.146921,-0.200687,-0.191368,43:22.3,1
0.13472,3.008294,10.134675,-0.075446,-0.099778,-0.391525,43:22.4,1
-1.078058,3.543431,10.845247,0.049435,0.094786,-0.025886,43:22.5,1
-0.911155,1.853595,10.239008,0.018737,0.139277,-0.132073,43:22.6,1
-0.498014,1.454974,9.088051,-0.014751,-0.11201,-0.297957,43:22.7,1
0.000299,2.109114,7.53039,0.016433,-0.279471,-0.04059,43:22.8,1
-0.424068,2.999014,7.414082,-0.183917,-0.110875,0.491047,43:22.9,1
-0.557291,4.093837,9.432036,-0.114412,-0.053181,0.296347,43:23.0,1
0.786165,2.971471,11.020084,0.098363,-0.068237,0.13693,43:23.1,1
0.039069,1.493893,11.960728,0.100593,-0.056659,0.039893,43:23.2,1
0.676892,1.315015,8.039332,-0.014568,-0.18662,0.154657,43:23.3,1
-0.038769,2.047891,7.382947,0.501645,0.326104,-0.092809,43:23.4,1
-0.105531,2.599794,7.662865,-0.187669,-0.368374,-0.172334,43:23.5,1
-0.088765,3.633544,8.421637,-0.39441,-0.562851,-0.43756,43:23.6,1
-0.602647,3.54433,10.318193,0.428093,0.179696,-0.188091,43:23.7,1
-0.594863,1.326392,11.807746,0.031866,0.033495,-0.107643,43:23.8,1
-1.141227,0.878972,10.64661,0.100679,0.261508,0.030895,43:23.9,1
0.074844,2.088158,7.604786,-0.561376,-0.168793,0.463156,43:24.0,1
-0.134271,2.596351,7.480844,0.299044,0.526897,0.575901,43:24.1,1
-0.279169,3.340304,8.536897,-0.412738,-0.439397,0.279978,43:24.2,1
-0.700394,3.628904,10.760823,0.255628,0.009342,-0.099171,43:24.3,1
-0.185464,3.417992,13.109289,-0.077336,-0.214304,-0.105624,43:24.4,1
0.073347,1.563499,9.873917,0.101154,0.044523,-0.177428,43:24.5,1
-0.001048,1.562451,8.436307,0.004266,-0.110078,-0.290685,43:24.6,1
-0.551603,2.732268,7.921677,0.351575,-0.019176,-0.230071,43:24.7,1
-0.386197,3.027155,8.308323,-0.275474,-0.190063,-0.249509,43:24.8,1
-0.40386,3.716322,8.531209,0.359733,0.345502,-0.271739,43:24.9,1
0.136965,1.097817,9.504186,-0.069478,0.038928,0.080439,45:30.7,1
0.058828,0.958457,9.834549,0.057573,0.167782,0.05955,45:30.8,1
-0.152682,1.265319,9.853709,0.072025,0.083562,0.022463,45:30.9,1
-0.632585,1.491199,9.711505,-0.038252,0.0499,0.023613,45:31.0,1
-1.02432,1.595382,9.459429,-0.043803,0.067379,0.114089,45:31.1,1
-0.75024,2.445016,9.228609,-0.008078,-0.039145,0.194686,45:31.2,1
0.102088,1.952989,9.104667,-0.160079,0.169353,0.24313,45:31.3,1
-0.061223,2.239343,9.170829,-0.24023,0.015513,0.355262,45:31.4,1
0.174687,2.182012,9.543554,-0.299173,-0.060213,0.415215,45:31.5,1
0.235011,1.324895,11.236683,-0.182845,-0.129575,0.246048,45:31.6,1
-0.151186,0.247435,12.46952,-0.097353,-0.168504,0.208262,45:31.7,1
0.651146,-0.391586,10.577005,0.028627,-0.284973,0.039467,45:31.8,1
0.526904,-0.156574,8.998837,0.104442,-0.039036,-0.054848,45:31.9,1
0.606389,0.749491,7.16994,0.22431,-0.109622,-0.091836,45:32.0,1
0.590073,1.303489,8.033195,0.225931,0.068841,-0.118763,45:32.1,1
0.622406,1.765429,9.418564,0.210544,0.044419,-0.145715,45:32.2,1
0.244442,1.62996,11.750415,-0.007779,0.035992,-0.023736,45:32.3,1
-0.027992,-0.693957,11.582913,0.023204,0.148929,-0.082108,45:32.4,1
-1.975442,0.021705,11.771222,0.134108,-0.052979,-0.2351,45:32.5,1
0.329465,0.408051,7.723938,0.247076,-0.178497,-0.127994,45:32.6,1
0.271386,1.498983,7.649094,0.230938,-0.155893,0.565859,45:32.7,1
0.511636,1.653611,9.241033,0.032866,-0.009705,0.428675,45:32.8,1
1.066832,1.457818,11.39191,-0.065418,-0.272966,0.19227,45:32.9,1
0.724344,-0.430205,13.155094,-0.176414,-0.382203,0.027315,45:33.0,1
0.429607,-0.090262,11.069331,-0.210335,-0.347139,-0.126916,45:33.1,1
0.075593,0.805325,8.380323,0.261898,0.033347,-0.235402,45:33.2,1
0.369132,1.144071,7.552844,0.048053,0.277677,-0.340667,45:33.3,1
0.911455,1.4186,9.236543,0.067495,-0.03577,-0.229004,45:33.4,1
0.462239,0.577649,11.711795,0.224776,0.069254,0.078153,45:33.5,1
-0.838257,0.003293,13.155842,0.210629,-0.114467,0.071574,45:33.6,1
-0.594863,-0.452808,12.19514,0.039521,-0.244426,-0.162555,45:33.7,1
-0.048499,1.372496,7.579788,0.055641,-0.013769,0.132543,45:33.8,1
-0.137714,2.137555,7.417525,0.062005,0.339056,0.217998,45:33.9,1
0.302671,1.91871,8.632249,-0.128246,-0.22934,0.305228,45:34.0,1
0.621957,1.514401,11.903397,0.051545,-0.107398,0.304106,45:34.1,1
0.746797,-0.859513,13.218861,0.146533,-0.298947,0.026141,45:34.2,1
0.418979,0.17319,10.768008,-0.28024,-0.576622,-0.141872,45:34.3,1
0.32213,1.126258,8.125553,0.176452,0.025638,-0.409168,45:34.4,1
0.504152,1.231938,7.436985,0.006686,0.282757,-0.325633,45:34.5,1
1.36561,1.265468,8.668025,-0.016823,0.004278,-0.125186,45:34.6,1
0.595761,0.443228,11.746523,0.093574,0.028598,0.098596,45:34.7,1
-0.449815,-0.623454,12.924573,0.0007,0.037207,-0.088561,45:34.8,1
-0.967438,-0.782722,12.946128,-0.024818,-0.317028,-0.23991,45:34.9,1
-0.011376,1.162333,7.276219,-0.274842,-0.403946,0.138472,45:35.0,1
0.104782,1.083297,8.627309,0.328735,0.497202,0.000889,45:35.1,1
0.229772,1.842968,8.489895,-0.16849,-0.336266,0.353792,45:35.2,1
0.406555,1.325793,12.201427,0.051018,-0.239659,0.145448,45:35.3,1
0.766107,0.174387,12.495715,0.196763,-0.119625,-0.102243,45:35.4,1
0.406704,-0.248783,10.711725,-0.132372,-0.580401,-0.126197,45:35.5,1
0.253722,0.633932,8.595875,0.01325,-0.001228,-0.262063,45:35.6,1
0.712967,0.979114,7.375163,-0.091009,0.058409,-0.363233,45:35.7,1
1.182092,0.823737,9.094638,0.131836,0.172691,-0.329689,45:35.8,1
0.48589,0.986449,11.398497,0.097141,0.065943,0.021136,45:35.9,1
-0.825683,0.089514,13.94575,0.120078,0.010819,-0.160643,45:36.0,1
-1.603915,0.214354,11.808195,-0.138626,-0.343845,-0.173009,45:36.1,1
-0.34608,0.6733,7.736362,-0.467667,-0.17498,0.17506,45:36.2,1
0.081281,1.250799,8.062234,0.095282,0.444851,0.138767,45:36.3,1
0.527653,1.768872,7.822882,-0.205976,-0.314823,0.368184,45:36.4,1
0.773442,1.305585,10.454111,-0.091581,-0.197189,0.199481,45:36.5,1
0.611778,1.028362,12.912598,-0.013016,-0.119841,-0.002951,45:36.6,1
0.534538,-0.399968,11.402239,-0.29127,-0.261045,-0.133872,45:36.7,1
0.60609,0.017663,9.103918,-0.407549,0.042367,-0.131536,45:36.8,1
0.536185,0.984952,7.609875,0.121222,0.113035,-0.3742,45:36.9,1
1.188678,0.752036,8.138127,0.126916,0.047205,-0.40668,45:37.0,1
1.2264,1.315464,9.575288,0.20397,0.189612,-0.287746,45:37.1,1
1.049468,1.171614,11.092683,0.120398,-0.083129,-0.188508,45:37.2,1
0.659828,-0.434097,10.7237,0.086922,0.13285,-0.221373,45:37.3,1
-0.850681,-1.037942,12.204271,-0.207531,0.157113,-0.362966,45:37.4,1
0.854872,0.695154,8.004006,0.291715,-0.31709,-0.7449,45:37.5,1
0.55789,1.000968,8.937764,0.435362,0.085233,-0.629539,45:37.6,1
0.872685,1.501977,8.643176,-0.006285,-0.111008,-0.749362,45:37.7,1
1.340762,1.38013,10.14171,-0.009529,-0.411768,-0.806061,45:37.8,1
1.404529,0.55759,11.770473,0.069172,-0.482479,-0.983179,45:37.9,1
0.895139,-0.330962,10.716665,-0.251619,-0.369279,-0.968244,45:38.0,1
0.7935,0.024998,8.945099,-0.451437,-0.301261,-0.936245,45:38.1,1
0.998274,0.294887,7.762258,0.08516,-0.210721,-1.401307,45:38.3,1
0.664917,1.055904,8.752898,-0.008698,0.193734,-1.286108,45:38.4,1
0.711171,1.269061,10.6755,0.146836,0.225972,-1.087784,45:38.5,1
-0.377515,1.230741,11.722423,0.057968,-0.170903,-0.748534,45:38.6,1
0.174537,0.329016,9.914483,-0.163291,0.053475,-0.418791,45:38.7,1
-0.908611,0.789608,10.069261,-0.237424,0.114499,-0.509474,45:38.8,1
0.537383,0.925825,7.109765,0.049946,-0.113222,-0.434988,45:38.9,1
0.671653,1.01444,8.45891,0.079483,-0.079911,0.097975,45:39.0,1
0.372426,2.059567,9.460477,0.12676,-0.029122,-0.017303,45:39.1,1
1.060395,1.793121,10.972782,0.025314,-0.096053,-0.31087,45:39.2,1
0.829575,-0.035027,11.849509,0.131681,-0.211159,-0.355306,45:39.3,1
0.841999,0.028591,9.434581,-0.443545,-0.618437,-0.4011,45:39.4,1
0.469873,1.321003,7.61736,0.251236,0.097877,-0.443072,45:39.5,1
0.90397,1.148861,7.816446,0.060184,0.245405,-0.358998,45:39.6,1
1.162034,1.606459,9.491013,0.19752,0.246147,-0.317409,45:39.7,1
0.044308,1.854793,10.40606,0.150305,-0.024567,-0.106749,45:39.8,1
0.06751,0.344434,10.469229,-0.074809,0.050723,-0.041592,45:39.9,1
-0.615071,0.129032,10.356214,-0.373819,0.079468,-0.04229,45:40.0,1
0.595911,1.276695,6.785988,0.155787,0.069846,-0.077852,45:40.1,1
0.238903,1.55826,8.705597,0.396661,0.125869,0.291964,45:40.2,1
0.312999,2.104174,9.708062,0.137807,0.163834,0.287316,45:40.3,1
1.233734,2.786456,10.219399,0.003103,-0.380931,0.045477,45:40.4,1
1.179996,-0.030836,11.459121,-0.246362,-0.22138,0.050554,45:40.5,1
0.474962,0.363444,9.238189,-0.614216,-0.158743,-0.07374,45:40.6,1
0.606688,0.808918,6.838529,-0.051651,0.242635,-0.294648,45:40.7,1
1.129401,0.662822,8.734337,0.067373,0.049522,-0.124907,45:40.8,1
1.08195,1.120869,10.826985,0.39391,0.358933,-0.152664,45:40.9,1
0.815055,2.161206,9.684112,0.332226,0.026788,-0.073761,45:41.0,1
0.224533,0.719404,10.941347,-0.150115,-0.216673,0.061091,45:41.1,1
-0.560734,0.970133,8.518486,-0.466848,0.31111,-0.034982,45:41.2,1
1.045127,1.095272,6.903494,0.29391,0.250311,-0.16173,45:41.3,1
0.551304,1.224903,8.685987,-0.183747,-0.182035,0.680871,45:41.4,1
0.537682,2.499652,9.974658,0.232018,0.272226,0.11548,45:41.5,1
1.243614,1.737736,11.093281,0.076256,-0.243748,-0.076523,45:41.6,1
0.630489,0.957409,10.673105,-0.083623,-0.061198,-0.155543,45:41.7,1
0.601,0.549358,8.329129,-0.566321,0.241332,-0.070203,45:41.8,1
0.498314,1.237327,7.051985,0.048282,0.180236,-0.207449,45:41.9,1
1.104403,1.239872,8.374635,0.08211,0.334373,-0.184652,45:42.0,1
1.123414,1.166524,11.543096,0.285205,0.194314,-0.043167,45:42.1,1
0.025148,1.89491,11.587404,0.226114,-0.088515,0.026222,45:42.2,1
0.073497,0.311951,10.396331,-0.04925,-0.059143,0.086971,45:42.3,1
-0.625699,1.050965,8.550818,-0.726061,0.139765,0.333943,45:42.4,1
0.181872,1.729054,7.523505,0.13835,0.412934,-0.082438,45:42.5,1
0.49547,1.925745,8.284672,-0.168335,-0.166207,0.326641,45:42.6,1
0.524509,1.690435,11.438913,0.032866,0.106013,0.254607,45:42.7,1
1.088237,1.417702,11.765833,0.23287,-0.140789,-0.023385,45:42.8,1
0.489033,1.316812,10.722952,-0.167223,-0.304433,0.096704,45:42.9,1
0.839454,0.499661,8.849747,-0.237316,0.133009,-0.071571,45:43.0,1
0.544268,1.473985,7.135661,-0.279721,0.122284,-0.010676,45:43.1,1
1.179996,1.192121,8.708441,0.142469,0.164106,-0.320474,45:43.2,1
0.723296,0.885109,12.002491,0.348471,0.184914,-0.075614,45:43.3,1
-0.100441,0.624651,13.159435,0.330652,-0.150531,-0.020386,45:43.4,1
-1.004262,1.259032,10.916798,0.059234,-0.061574,0.047226,45:43.5,1
0.117506,0.976569,8.018226,-0.502199,0.011825,0.332126,45:43.6,1
0.21166,1.980082,7.438482,-0.205083,0.206483,0.300378,45:43.7,1
0.639919,1.754651,8.722062,-0.07472,-0.009522,0.288797,45:43.8,1
0.63977,1.494193,12.150832,-0.036572,0.016932,0.284258,45:43.9,1
0.569416,0.12963,13.595478,0.1521,-0.21478,-0.058485,45:44.0,1
0.527204,0.217348,10.917697,-0.266023,-0.579044,-0.126272,45:44.1,1
0.164957,1.001268,7.621401,0.211789,-0.042077,-0.24387,45:44.2,1
0.713716,1.284479,7.295379,0.055366,0.164391,-0.114079,45:44.3,1
1.609154,1.780547,8.357271,0.101646,-0.129878,-0.172866,45:44.4,1
0.91864,1.127905,11.540102,0.192951,0.133017,0.11019,45:44.5,1
0.709824,-1.11563,12.297228,-0.087008,-0.181111,0.050826,45:44.6,1
-0.310604,0.51448,10.208322,-0.234616,-0.158335,-0.033646,45:44.7,1
0.315394,1.515449,7.265292,0.334427,-0.260957,-0.285269,45:44.8,1
0.377665,1.537153,8.964708,-0.000958,0.004895,0.164202,45:44.9,1
0.662672,2.08711,9.705817,0.027679,0.055586,0.166189,45:45.0,1
1.602118,2.061513,10.597363,0.140216,-0.27214,0.056852,45:45.1,1
0.652643,0.380658,12.033776,0.183634,-0.10956,-0.08118,45:45.2,1
0.562979,0.574954,8.399932,-0.623177,0.028446,-0.183291,45:45.3,1
0.667612,1.321901,6.821764,0.043479,0.079491,-0.208936,45:45.4,1
0.936902,1.171763,8.53585,0.143105,0.358434,-0.138917,45:45.5,1
0.762664,0.864303,11.687845,0.251023,0.25717,-0.064574,45:45.6,1
-0.465083,1.538201,11.70955,0.361349,-0.056232,-0.004952,45:45.7,1
-0.589324,1.165177,10.278825,-0.103554,-0.13018,0.117019,45:45.8,1
-0.160616,1.284479,8.149802,-0.929168,0.055794,0.46584,45:45.9,1
0.431403,1.703757,7.353458,0.045707,0.676625,0.188809,45:46.0,1
0.505199,1.745221,8.380173,-0.299696,-0.14085,0.498566,45:46.1,1
0.401914,1.372346,11.67123,0.086496,0.15116,0.200008,45:46.2,1
0.291594,0.385299,13.567037,0.327556,-0.224728,-0.173675,45:46.3,1
0.393532,0.254171,11.616593,-0.224669,-0.546969,-0.083956,45:46.4,1
0.384251,0.943488,7.831115,-0.040701,0.022867,-0.20185,45:46.5,1
0.685125,1.272204,7.695497,-0.062886,0.112414,-0.232616,45:46.6,1
1.564696,1.439706,8.92983,-0.011619,-0.036161,-0.124649,45:46.7,1
0.813858,1.138083,11.174113,0.283739,0.014618,0.077339,45:46.8,1
0.215402,-0.719703,13.330529,0.275755,-0.112639,-0.020305,45:46.9,1
-0.845741,0.526006,10.650053,-0.049892,-0.286261,-0.197195,45:47.0,1
0.604742,1.222508,7.373068,-0.06323,-0.383418,0.031817,45:47.1,1
0.420925,1.773362,8.230934,0.031712,0.186189,0.234958,45:47.2,1
0.721649,2.145189,9.333092,-0.034425,-0.027245,0.235164,45:47.3,1
1.475182,2.073488,10.745255,0.149168,-0.181611,0.122673,45:47.4,1
1.092877,-0.072449,12.143647,0.097552,-0.139721,0.000653,45:47.5,1
0.6733,0.920885,8.901988,-0.495811,-0.423401,-0.267275,45:47.6,1
0.537532,0.947979,7.417974,0.095807,0.145381,-0.393229,45:47.7,1
1.142873,0.856219,8.017029,-0.109894,0.043835,-0.096282,45:47.8,1
1.282832,0.878673,10.947335,0.250768,0.10262,-0.138276,45:47.9,1
0.412243,2.035318,11.208691,0.28464,0.14415,0.054502,45:48.0,1
-0.045056,1.245859,10.36295,0.023637,-0.099119,0.036829,45:48.1,1
-0.322879,1.286275,8.11747,-0.620648,0.422977,0.217769,45:48.2,1
0.53364,1.688189,6.897806,0.201893,0.498752,0.010634,45:48.3,1
0.449665,1.638792,8.088879,-0.118546,-0.149328,0.265421,45:48.4,1
0.284259,2.134711,11.534115,0.135935,0.15415,-0.033861,45:48.5,1
0.522713,1.456322,12.889696,0.259065,-0.077337,-0.261056,45:48.6,1
0.775088,0.376317,11.031011,-0.254117,-0.447548,0.062963,45:48.7,1
0.415536,0.868793,8.164921,-0.187749,0.261773,0.0497,45:48.8,1
0.463586,1.246308,7.529792,-0.23171,0.084109,-0.094774,45:48.9,1
1.292712,0.563728,8.969198,-0.157507,0.370743,-0.277379,45:49.0,1
0.555944,0.554597,12.279115,0.091113,-0.043148,0.046081,45:49.1,1
0.29833,-0.299677,12.907808,0.246619,-0.060937,-0.072772,45:49.2,1
-1.000968,-0.287552,12.249477,0.043474,-0.370226,-0.092393,45:49.3,1
0.330064,1.112636,7.253766,-0.231057,-0.487594,0.052031,45:49.4,1
0.384251,1.676514,7.679331,0.173184,0.557625,0.149198,45:49.5,1
0.323627,1.90449,8.706046,-0.197153,-0.4005,0.207885,45:49.6,1
0.700094,1.346899,11.930939,0.024211,-0.021431,-0.008157,45:49.7,1
1.428929,-0.397274,12.803924,0.213392,-0.067252,-0.15361,45:49.8,1
1.037642,-0.352367,11.334729,-0.179271,-0.839214,-0.152388,45:49.9,1
0.226479,1.069975,8.035141,0.233508,0.076373,-0.201537,45:50.0,1
0.648152,0.938698,7.254364,-0.098056,0.036041,-0.209672,45:50.1,1
1.608705,1.074615,9.60343,0.127953,0.16115,-0.296074,45:50.2,1
1.551823,1.408122,10.992242,0.175539,0.093171,0.102975,45:50.3,1
0.67824,-0.741259,11.355087,0.085477,0.009701,0.026697,45:50.4,1
-0.652493,0.061223,10.127939,-0.296861,-0.048555,-0.074424,45:50.5,1
0.366438,1.047073,7.252718,0.50494,0.271471,-0.340614,45:50.6,1
0.343236,1.183439,8.17031,0.078684,-0.124765,0.281539,45:50.7,1
0.353714,1.861529,9.555829,0.179218,0.105627,0.076659,45:50.8,1
1.686543,2.086511,10.432705,0.146413,-0.169721,-0.14854,45:50.9,1
1.023871,-0.618364,12.32028,0.014723,-0.02039,-0.108583,45:51.0,1
0.813858,0.352218,8.90573,-0.49742,-0.298358,-0.453566,45:51.1,1
0.127684,1.029858,8.302335,0.050561,0.22416,-0.205515,45:51.2,1
0.773891,0.958607,7.581584,0.0512,0.169244,-0.339379,45:51.3,1
1.341361,1.844764,9.211694,0.191142,0.088855,-0.167316,45:51.4,1
0.465532,2.613116,11.06035,0.127591,0.108485,0.098997,45:51.5,1
0.304167,0.603096,9.973011,-0.089159,0.232496,0.016888,45:51.6,1
-0.455054,-0.321232,10.85333,-0.25044,0.215177,-0.259646,45:51.7,1
0.452509,1.462159,6.401438,0.139766,0.178709,-0.121837,45:51.8,1
-0.049397,1.57712,8.457562,0.003672,-0.383356,0.3098,45:51.9,1
0.266446,2.550097,9.203461,0.221635,0.314993,0.165148,45:52.0,1
1.359772,2.31299,10.769954,0.088892,-0.179922,0.004618,45:52.1,1
1.119971,0.654289,11.123818,-0.117212,-0.145448,0.158428,45:52.2,1
0.77883,0.702339,9.232501,-0.502969,-0.080419,-0.090062,45:52.3,1
0.322579,1.437012,6.984775,-0.037309,0.177513,-0.18975,45:52.4,1
0.68782,1.059048,8.784932,-0.050408,0.072028,-0.089459,45:52.5,1
1.044678,1.405427,10.776241,0.146092,0.163262,-0.157109,45:52.6,1
0.254022,1.847758,11.716735,0.229832,0.027425,-0.016602,45:52.7,1
0.50475,0.650996,9.721235,-0.08932,-0.010206,0.048068,45:52.8,1
-0.470172,0.896336,8.644524,-0.964469,-0.120946,0.527498,45:52.9,1
0.244891,1.560804,7.027287,0.116009,0.679347,0.027723,45:53.0,1
0.033979,1.763782,8.39619,0.022947,-0.412315,0.162474,45:53.1,1
0.459993,1.746418,11.971206,0.196617,0.270796,0.020681,45:53.2,1
0.615969,0.642165,12.728032,0.302702,-0.32983,-0.086478,45:53.3,1
0.744851,0.514929,10.745255,-0.198927,-0.469279,0.199089,45:53.4,1
0.793949,0.739612,8.229886,0.046664,0.321421,-0.047631,45:53.5,1
0.621508,1.612297,7.397766,-0.1844,0.145584,-0.028929,45:53.6,1
1.116079,1.203946,8.584948,-0.079544,0.136671,-0.2042,45:53.7,1
1.140628,0.722847,11.913426,0.164109,0.060806,0.003281,45:53.8,1
-0.023501,0.401166,13.842914,0.237464,-0.097883,-0.007475,45:53.9,1
-0.568817,0.963546,11.126512,0.083429,-0.196395,-0.079242,45:54.0,1
0.32677,1.127156,7.623796,-0.42173,-0.250337,0.399428,45:54.1,1
0.392184,1.926644,7.336843,0.10883,0.183904,0.242361,45:54.2,1
0.613125,1.962269,8.534802,-0.061336,-0.151742,0.361944,45:54.3,1
0.943338,1.764082,11.942915,0.067022,-0.079424,0.150116,45:54.4,1
1.017584,0.335303,13.485756,0.192093,-0.164252,-0.118881,45:54.5,1
0.581092,0.411644,11.075918,-0.319319,-0.490502,-0.094633,45:54.6,1
0.317639,1.05321,7.912097,0.321366,0.419144,-0.286832,45:54.7,1
0.583038,1.457519,7.015611,-0.119204,-0.032058,-0.21735,45:54.8,1
1.027463,1.787283,8.801846,0.164952,0.32759,-0.274517,45:54.9,1
0.143851,1.393602,11.532618,0.177997,0.119114,-0.027443,45:55.0,1
0.49517,-1.092129,12.559931,-0.051261,0.073527,-0.050322,45:55.1,1
-0.936752,-0.190404,11.284883,-0.332353,-0.132032,-0.095323,45:55.2,1
0.124391,1.027164,7.223229,0.270704,-0.411279,-0.231883,45:55.3,1
0.067809,1.359174,8.349487,0.199244,0.067813,0.185402,45:55.4,1
0.137414,2.179019,8.685838,0.004818,-0.128539,0.197222,45:55.5,1
0.75503,1.657653,11.45478,-0.010599,-0.274942,0.074675,45:55.6,1
0.714764,-0.665366,13.689483,0.121087,-0.140451,-0.076493,45:55.7,1
0.659379,0.10583,9.952653,-0.441212,-0.474574,-0.06786,45:55.8,1
0.374521,0.984353,7.811506,0.308064,0.171897,-0.242908,45:55.9,1
0.731529,1.534758,7.477251,0.094097,0.066865,-0.11425,45:56.0,1
0.989892,2.064657,8.803044,0.202126,0.140392,-0.169359,45:56.1,1
0.67824,1.460812,11.215876,0.128575,0.179533,0.047376,45:56.2,1
0.569266,-1.328637,12.538825,0.126552,0.05782,0.031742,45:56.3,1
-1.146316,0.09625,12.254267,-0.10861,-0.145439,-0.069012,45:56.4,1
0.173639,1.138682,7.300169,0.208082,-0.311844,-0.292894,45:56.5,1
-0.066911,1.728306,8.244705,0.228489,0.074585,0.224509,45:56.6,1
0.218396,2.045347,8.809181,-0.047252,-0.069311,0.261523,45:56.7,1
0.283361,1.988764,11.208542,-0.045149,-0.31717,0.128108,45:56.8,1
0.738115,1.667233,12.200529,0.227939,-0.183889,-0.090524,45:56.9,1
0.337398,1.116229,10.307116,0.12452,-0.234124,-0.015246,45:57.0,1
0.23097,1.173111,8.334069,-0.289775,0.426005,0.039588,45:57.1,1
0.442031,0.941243,8.325836,-0.129727,-0.185987,-0.125412,45:57.2,1
0.604443,1.070125,9.079818,-0.043311,0.186168,0.128148,45:57.3,1
0.079185,2.048939,9.695039,0.211566,0.274409,0.172337,45:57.4,1
-0.028441,2.388134,10.034084,0.117668,-0.066058,0.053725,45:57.5,1
-0.482896,0.993334,11.141781,0.197085,0.190031,0.094668,45:57.6,1
-1.387914,0.142803,11.539354,0.019328,0.429737,0.158645,45:57.7,1
0.008682,0.676593,8.329429,0.346767,0.004055,0.086266,45:57.8,1
-0.040865,0.934656,8.97309,-0.121075,-0.106692,0.523404,45:57.9,1
-0.024399,1.337768,9.922416,0.160723,0.013503,0.042142,45:58.0,1
-0.317789,2.863695,9.046887,0.126272,-0.126103,-0.157639,47:03.7,1
-0.356109,2.893633,9.50224,0.008455,-0.312951,-0.378629,47:03.8,1
-0.829126,3.140619,8.214618,-0.205872,-0.063384,-0.064618,47:03.9,1
-1.542692,3.160079,9.965527,0.005638,0.194737,0.164769,47:04.0,1
-1.454076,3.149451,8.696915,-0.426818,-0.156352,-0.101413,47:04.1,1
-0.256417,3.22684,8.813372,-0.323134,0.237744,0.226883,47:04.2,1
-0.565674,3.314857,8.904533,-0.174748,-0.102563,0.435626,47:04.3,1
-0.670156,3.151247,9.426497,-0.14064,-0.064766,0.114884,47:04.4,1
0.218995,2.476301,12.259506,-0.109281,-0.170701,0.153017,47:04.5,1
0.27408,0.994532,13.447137,-0.087482,-0.229011,0.342073,47:04.6,1
0.675845,0.567769,8.745863,-0.180311,-0.1771,-0.16198,47:04.7,1
-0.069456,1.186283,7.962691,0.906181,0.447415,-0.035924,47:04.8,1
-0.27423,2.166295,7.302564,0.357994,0.116772,-0.350934,47:04.9,1
-0.004191,3.014132,7.895781,0.229762,0.23653,-0.096566,47:05.0,1
-0.323178,4.100273,9.308842,-0.077247,0.091885,0.059338,47:05.1,1
-1.015488,4.143084,10.33436,-0.015443,0.119113,0.232753,47:05.2,1
-0.083826,2.529739,14.221925,-0.010429,-0.109815,0.178097,47:05.3,1
-0.554597,1.883383,9.21828,-0.538342,-0.853913,0.063892,47:05.4,1
-0.312251,1.715882,7.86255,0.432299,0.269826,0.384791,47:05.5,1
-0.227677,2.216441,7.460935,0.202555,0.113977,0.218351,47:05.6,1
-0.381856,3.245251,8.277637,0.097283,-0.00023,0.051892,47:05.7,1
-0.374671,3.785328,10.189162,-0.177821,-0.029149,-0.229476,47:05.8,1
0.020358,3.694318,11.713292,0.038233,-0.180783,-0.0132,47:05.9,1
-0.321382,1.567091,10.353669,0.153457,0.230691,0.162743,47:06.0,1
0.034578,1.738485,9.309142,-0.214003,0.406095,-0.261039,47:06.1,1
-0.177531,2.6691,6.641988,-0.095383,-0.133525,-0.447612,47:06.2,1
-0.437241,3.078798,8.346194,0.264637,0.077463,-0.306142,47:06.3,1
-0.245939,3.915258,8.744665,-0.113132,-0.188985,-0.446797,47:06.4,1
-1.087489,3.849395,11.022329,0.200075,0.134106,0.089718,47:06.5,1
-0.714165,2.497407,12.49796,0.06429,-0.59482,-0.102554,47:06.6,1
-0.907263,1.876348,9.233399,-0.750228,-0.377584,-0.02471,47:06.7,1
-0.204624,1.824706,7.981403,-0.099549,-0.115415,0.255528,47:06.8,1
-0.279768,3.003804,7.263795,-0.043028,0.034727,0.427393,47:06.9,1
-0.284109,3.747607,8.48765,-0.008835,0.267144,0.257751,47:07.0,1
-0.854124,3.55361,11.72407,0.231717,-0.054304,0.070404,47:07.1,1
-0.128134,1.541644,12.51278,-0.20015,-0.44277,-0.160879,47:07.2,1
1.092129,1.987866,9.270821,-0.799617,-0.492789,-0.294533,47:07.3,1
0.131726,2.45265,7.454798,0.537349,-0.318065,0.409606,47:07.4,1
-0.356708,3.022365,6.981482,0.08617,0.246745,-0.404045,47:07.5,1
-0.488584,3.728297,8.260722,0.019802,0.180803,-0.429841,47:07.6,1
-0.393981,3.807183,11.906091,0.041918,-0.038798,-0.085811,47:07.7,1
0.742157,3.466641,13.360916,-0.03997,-0.513067,0.081766,47:07.8,1
-0.615221,2.271227,9.789493,-0.297572,0.281103,0.687685,47:07.9,1
-0.40416,1.94296,8.040081,0.496242,0.169482,0.312613,47:08.0,1
-0.251327,2.682272,6.845565,-0.177422,0.362949,0.141133,47:08.1,1
-0.402962,3.532953,7.970326,0.270319,-0.059238,0.246261,47:08.2,1
-0.425864,3.596122,10.638078,0.122613,-0.225923,-0.06756,47:08.3,1
0.582139,2.349963,13.222603,-0.144994,-0.651921,-0.204063,47:08.4,1
1.321751,2.022444,10.792407,-0.743232,-0.372452,-0.019227,47:08.5,1
0.364043,2.151326,8.265362,0.258879,-0.044246,0.537495,47:08.6,1
-0.049248,2.810256,6.647826,0.04471,0.271112,-0.459286,47:08.7,1
0.424517,3.285368,7.839947,0.177782,0.214802,-0.354979,47:08.8,1
0.179626,4.071384,9.395063,-0.030134,0.038422,-0.103046,47:08.9,1
-0.659379,3.963907,11.388318,-0.006477,-0.06158,0.13709,47:09.0,1
-1.157094,2.33245,10.101145,0.133247,0.299613,0.211282,47:09.1,1
-0.988544,1.334625,10.140064,0.21573,0.662184,0.020453,47:09.2,1
-0.236658,1.788481,6.388266,-0.39084,-0.233405,-0.235632,47:09.3,1
-0.392334,2.708468,7.752828,0.210441,0.112246,0.180065,47:09.4,1
-0.523312,3.392395,8.838221,-0.148678,-0.227629,0.044722,47:09.5,1
-0.419128,3.261867,11.380983,-0.078093,-0.131516,-0.053199,47:09.6,1
-0.135917,0.655786,12.533437,-0.309863,-0.261336,-0.069062,47:09.7,1
1.081052,0.846639,9.366023,-0.898057,-0.325228,-0.540634,47:09.8,1
-0.369282,1.704206,7.240294,0.441264,-0.221712,0.043991,47:09.9,1
-0.172741,2.21704,8.135881,-0.003484,0.386969,-0.377297,47:10.0,1
0.554447,2.744692,8.980874,-0.096781,0.054276,-0.363068,47:10.1,1
0.411794,3.021167,10.855127,0.00508,0.043487,-0.179466,47:10.2,1
-0.349373,2.02948,13.351635,0.053151,-0.119138,-0.255177,47:10.3,1
-0.137115,0.784668,10.283914,0.199199,0.689983,-0.068839,47:10.4,1
-0.489183,0.273481,10.205029,1.175362,0.813616,-0.001595,47:10.5,1
0.276026,1.603915,7.313941,-0.158323,-0.110578,-0.930095,47:10.6,1
-0.210911,2.485881,8.379425,0.227659,0.102624,-0.962234,47:10.7,1
-0.374072,3.228786,9.110654,0.099573,-0.435285,-1.376845,47:10.8,1
-0.333057,2.452949,9.863888,0.298976,-0.34461,-1.365937,47:10.9,1
-0.731229,-0.071851,13.869408,0.321259,-0.857134,-1.154296,47:11.0,1
1.100661,0.825084,9.276659,-1.133703,-0.9045,-1.778435,47:11.1,1
-0.217198,1.666035,7.633526,0.511356,-0.431323,-0.835842,47:11.2,1
-0.541574,2.470612,8.34335,0.090043,-0.230854,-1.321879,47:11.3,1
-0.438139,3.168311,8.482411,-0.049541,-0.004533,-1.330338,47:11.4,1
-0.571512,3.893404,10.593171,0.472034,0.078916,-0.717229,47:11.5,1
-0.331411,2.634671,14.617403,0.286862,-0.197648,-0.314392,47:11.6,1
-0.711021,2.209256,9.758956,-0.039859,0.216926,-0.209669,47:11.7,1
-0.870889,1.698817,8.692723,1.045719,0.675999,0.139328,47:11.8,1
-0.52406,2.438429,6.264323,0.037663,-0.018596,-0.177698,47:11.9,1
-0.395328,3.122357,7.892038,0.322955,0.013253,0.031221,47:12.0,1
-0.815953,3.709736,10.186767,0.167306,-0.373338,-0.269347,47:12.1,1
0.324375,3.308719,11.666589,0.119756,-0.279673,-0.230358,47:12.2,1
-0.743204,1.772165,10.994187,-0.045715,-0.016352,0.158005,47:12.3,1
-0.000898,1.952839,8.683293,-0.167113,0.413193,-0.159731,47:12.4,1
0.231269,2.590962,6.461314,-0.070896,0.201123,-0.366543,47:12.5,1
-0.108674,2.84184,8.459359,0.25804,0.075174,-0.220508,47:12.6,1
0.110171,4.023184,9.230555,-0.063576,-0.155508,-0.338755,47:12.7,1
-0.981958,3.485502,12.449761,0.448697,0.082814,0.20238,47:12.8,1
-1.027613,2.290686,10.518177,-0.118968,0.345646,-0.043901,47:12.9,1
-1.656605,1.006657,9.582473,0.508662,0.445698,0.376928,47:13.0,1
-0.756377,1.824406,6.18394,-0.218391,-0.003647,-0.025143,47:13.1,1
-0.279918,3.019521,7.450157,0.181631,0.159385,0.175107,47:13.2,1
-0.354164,3.444787,10.004446,0.164851,-0.179289,0.126157,47:13.3,1
0.217198,3.171605,11.633358,-0.007364,-0.191722,-0.064778,47:13.4,1
-0.852178,1.371298,11.198662,0.127576,0.001824,0.213654,47:13.5,1
0.280217,1.776206,9.213041,-0.2825,0.552374,-0.267921,47:13.6,1
0.03847,2.60144,6.398444,0.07908,-0.00638,-0.20776,47:13.7,1
-0.160017,3.025508,7.938442,0.300319,0.148531,-0.277252,47:13.8,1
0.264799,4.042643,8.856034,0.095899,-0.173087,-0.264857,47:13.9,1
-1.641187,3.252886,11.229348,0.230858,-0.066981,0.127072,47:14.0,1
-0.989742,1.672622,10.782677,-0.280537,0.518933,-0.094113,47:14.1,1
-1.122665,1.258283,9.748777,0.113903,-0.297761,0.198637,47:14.2,1
0.018861,1.925446,6.106102,-0.40899,0.033989,-0.033743,47:14.3,1
-0.328716,3.023113,7.81914,0.144549,0.391232,0.385572,47:14.4,1
-0.483345,3.531157,9.69474,0.075933,-0.228362,0.083853,47:14.5,1
-0.228724,3.203189,11.390563,0.179696,-0.163647,-0.049074,47:14.6,1
-0.795745,1.605561,10.966046,0.103569,0.075971,0.083637,47:14.7,1
0.222288,1.562451,9.896969,-0.240592,0.208789,-0.417627,47:14.8,1
-0.118703,2.400259,6.606961,-0.125046,-0.104268,-0.262119,47:14.9,1
0.126786,2.840343,7.996222,0.130063,0.202847,-0.17119,47:15.0,1
0.11541,3.851042,9.008118,0.017211,-0.08482,-0.123503,47:15.1,1
-1.379831,3.708538,10.81486,0.216007,0.065826,0.124064,47:15.2,1
-1.280138,1.549578,11.211985,-0.014061,0.187931,-0.014633,47:15.3,1
-1.26457,1.590892,9.460477,-0.18157,-0.226437,-0.098007,47:15.4,1
0.127385,2.29398,6.886579,-0.441391,-0.068185,-0.140806,47:15.5,1
-0.388742,3.129841,7.999814,0.082426,0.020032,0.258845,47:15.6,1
-0.521516,3.637137,8.945248,0.03279,-0.133643,0.075995,47:15.7,1
-0.773741,3.178939,11.396551,0.353402,0.00173,0.004787,47:15.8,1
-0.611628,1.141975,11.538156,-0.107397,0.164091,-0.141705,47:15.9,1
0.362247,1.748664,8.786878,-0.430032,0.239416,-0.390664,47:16.0,1
-0.013771,2.668052,6.250103,-0.061142,0.050188,-0.263855,47:16.1,1
-0.265248,3.167114,8.523126,0.234179,0.039084,-0.205684,47:16.2,1
0.199385,4.200266,9.244177,-0.07475,-0.139003,-0.253073,47:16.3,1
-1.383723,3.502267,10.641371,0.33622,0.076807,0.264556,47:16.4,1
-1.18314,1.594634,10.265353,0.074941,0.1948,-0.003686,47:16.5,1
-1.17326,1.439556,9.856853,0.133197,0.07445,0.035026,47:16.6,1
0.035776,2.185605,6.923403,-0.597839,-0.065305,-0.077362,47:16.7,1
-0.330363,2.876119,7.50195,-0.04673,0.095714,0.258563,47:16.8,1
-0.402064,3.25064,9.975556,0.055664,-0.050821,0.096514,47:16.9,1
-0.019609,3.031047,12.754078,0.028251,-0.169899,-0.079739,47:17.0,1
0.536933,1.614393,10.386302,-0.285223,0.027795,-4.50E-05,47:17.1,1
0.042512,1.677711,8.852441,0.36871,0.479494,0.112297,47:17.2,1
-0.079634,2.574047,6.22241,-0.189214,0.049392,-0.612367,47:17.3,1
-0.123942,3.148702,8.13663,0.151127,0.167848,-0.265905,47:17.4,1
0.332309,4.355193,9.67049,0.003747,-0.189687,-0.173599,47:17.5,1
-0.619861,3.718567,12.177477,0.412938,-0.030317,0.24487,47:17.6,1
-0.954415,2.376608,9.383986,0.0693,0.524871,0.102101,47:17.7,1
-1.339265,1.653611,9.617949,0.594128,0.657182,0.110627,47:17.8,1
-0.285606,2.352658,6.584807,-0.260689,-0.017291,-0.07277,47:17.9,1
-0.248034,3.232827,7.209608,0.140385,0.165175,0.214728,47:18.0,1
-0.52421,3.806434,10.144405,0.195472,-0.106287,0.106943,47:18.1,1
-0.130978,3.665128,12.014166,-0.029743,-0.169052,-0.041905,47:18.2,1
-0.753383,1.506916,10.744357,-0.095144,0.217499,0.113846,47:18.3,1
0.171094,2.268533,7.969727,-0.062896,0.434997,-0.268565,47:18.4,1
-0.099693,2.930456,6.899752,-0.059827,0.129472,-0.279699,47:18.5,1
-0.123493,3.353925,7.964937,0.110277,0.076427,-0.279864,47:18.6,1
-0.056732,4.268673,9.155711,-0.048401,0.002184,-0.16674,47:18.7,1
-1.512006,3.942801,11.10376,0.208454,0.032489,0.175807,47:18.8,1
-1.19257,2.222728,10.023007,0.014075,0.274199,0.008956,47:19.0,1
-1.030158,2.027983,9.227561,0.364947,0.221608,0.085146,47:19.1,1
-0.197589,2.311793,7.012617,-0.395219,-0.090585,-0.066521,47:19.2,1
-0.066761,3.172802,8.110883,0.164453,-0.028096,0.190855,47:19.3,1
-0.351619,3.838767,9.765992,0.008285,-0.155683,0.063656,47:19.4,1
-0.106279,3.602558,11.28608,0.160298,-0.027034,-0.022425,47:19.5,1
-0.713117,1.617237,10.719958,0.097998,0.236696,0.126855,47:19.6,1
-0.015268,1.915117,8.589887,-0.159217,0.517478,-0.247845,47:19.7,1
0.02425,2.944976,6.521189,-0.311642,0.233802,-0.504569,47:19.8,1
-0.287253,3.288512,7.879614,0.097728,0.156368,-0.158772,47:19.9,1
-0.00943,4.293971,9.445658,-0.063524,-0.052969,-0.1855,47:20.0,1
-1.043031,4.133055,11.01709,0.224885,-0.012469,0.181849,47:20.1,1
-1.382974,2.119892,9.693692,0.150354,0.390851,0.124221,47:20.2,1
-1.40423,1.626518,9.288335,0.396256,0.323719,-0.15231,47:20.3,1
-0.208367,1.949696,7.345375,-0.482134,-0.370533,0.015709,47:20.4,1
-0.276924,3.074906,7.815697,-0.045797,0.087318,0.237416,47:20.5,1
-0.36569,3.521128,10.635982,-0.039691,-0.022828,0.113091,47:20.6,1
-0.021405,3.546725,11.56061,0.003382,-0.22394,-0.038401,47:20.7,1
-1.052162,1.171165,10.504406,-0.007946,0.166202,0.060875,47:20.8,1
-0.145647,1.657354,8.305778,-0.014255,0.38133,-0.29321,47:20.9,1
0.071851,2.750231,6.787785,-0.21613,0.016668,-0.433472,47:21.0,1
-0.287851,3.270549,7.996222,0.057828,-0.04038,-0.125566,47:21.1,1
-0.176333,4.003275,9.758357,-0.058057,-0.066388,-0.182499,47:21.2,1
-0.628393,3.594775,11.672577,0.168662,0.010006,0.20692,47:21.3,1
-1.117576,1.975891,9.767937,0.19544,0.424415,0.242255,47:21.4,1
-1.107996,1.592389,9.166638,0.805761,0.402202,0.06759,47:21.5,1
-0.25986,2.176175,6.786737,-0.363973,-0.019522,-0.046993,47:21.6,1
-0.123643,3.146307,8.313262,0.02424,0.146379,0.123899,47:21.7,1
-0.694406,3.51993,9.674382,0.070632,-0.198078,-0.032847,47:21.8,1
0.505499,3.146457,12.009825,0.082955,-0.151789,-0.11052,47:21.9,1
-0.409548,1.326392,10.865305,0.16052,-0.052136,0.232288,47:22.0,1
0.103585,1.842668,8.54528,0.015635,0.492731,-0.123859,47:22.1,1
0.059426,2.809508,6.479127,-0.182429,0.226356,-0.383826,47:22.2,1
-0.121547,3.263663,8.076156,0.207176,0.176648,-0.178361,47:22.3,1
0.238454,3.996389,9.860445,-0.022284,-0.064005,-0.165681,47:22.4,1
-1.140778,3.823649,10.769205,0.261154,-0.045076,0.131421,47:22.5,1
-0.93271,1.97185,10.665022,0.032045,0.43112,0.008953,47:22.6,1
-0.818498,1.41875,8.814121,0.239076,0.219288,-0.01994,47:22.7,1
-0.118254,2.0678,7.149133,-0.355565,0.077959,-0.216724,47:22.8,1
-0.452359,2.810555,8.309969,0.071106,-0.018888,0.131397,47:22.9,1
-0.415386,3.583249,9.618997,0.011664,-0.273755,-0.084423,47:23.0,1
0.08188,3.321443,11.748918,0.262458,-0.201539,0.013251,47:23.1,1
-0.655337,1.166524,11.22875,0.058437,0.21454,0.081551,47:23.2,1
0.187261,1.973646,8.718769,0.051189,0.489506,-0.072837,47:23.3,1
0.258063,3.076702,6.187084,-0.158552,0.414167,-0.230847,47:23.4,1
-0.186063,2.979105,8.061187,0.215436,0.156696,0.002037,47:23.5,1
0.252225,3.972439,9.73321,0.040322,-0.07687,-0.115769,47:23.6,1
0.118553,3.045417,13.682298,0.289591,-0.062224,0.26128,47:23.7,1
-0.670306,2.52465,8.816965,-0.192183,0.287796,0.049599,47:23.8,1
-1.00501,1.395249,9.519305,0.733485,0.744028,0.418679,47:23.9,1
-0.424966,2.038461,6.537954,-0.352156,-0.182287,0.10035,47:24.0,1
-0.288001,3.1496,8.063881,0.016706,0.194783,0.200135,47:24.1,1
-0.112566,3.181484,11.571836,0.048741,-0.157021,0.027762,47:24.2,1
1.431473,2.532883,12.948972,-0.102702,-0.451263,-0.222027,47:24.3,1
0.330513,1.413511,9.535471,0.06448,-0.078141,0.094848,47:24.4,1
-0.338446,1.782493,8.632399,0.710545,0.237524,0.160639,47:24.5,1
-0.002844,2.824476,7.087761,-0.200891,0.27347,-0.570878,47:24.6,1
0.22618,3.137775,7.922425,-0.003327,0.127002,-0.304798,47:24.7,1
-0.121847,3.754492,9.9543,-0.086929,-0.008422,-0.324073,47:24.8,1
-0.112416,2.874473,13.07022,0.010629,-0.118722,-0.133506,47:24.9,1
-0.643512,1.825155,10.002649,-0.047279,0.439963,0.216785,47:25.0,1
-0.680934,1.465153,9.22337,0.579527,0.49206,0.20853,47:25.1,1
-0.15882,2.294129,6.498436,-0.29215,0.131268,0.182438,47:25.2,1
0.031135,2.804568,8.042476,0.16139,0.213342,0.342764,47:25.3,1
-0.089214,3.372337,10.846894,0.168259,-0.222488,0.158955,47:25.4,1
1.39929,2.503993,13.160034,0.037209,-0.325888,0.156639,47:25.5,1
1.08674,1.540596,10.209669,-0.224248,-0.115304,0.200762,47:25.6,1
0.133522,1.623524,8.296647,0.449913,0.231014,0.202816,47:25.7,1
-0.199984,2.690655,7.043752,-0.197399,0.315629,-0.55734,47:25.8,1
0.013921,3.210224,7.959997,0.019347,0.253498,-0.249669,47:25.9,1
0.074994,3.737877,10.774145,0.129322,0.082111,-0.064601,47:26.0,1
-0.199385,3.14032,12.741953,0.158673,-0.055594,0.152976,47:26.1,1
-0.233365,2.185755,9.990076,-0.102813,0.387891,0.260346,47:26.2,1
-0.432151,1.709445,8.192164,0.626469,0.332898,0.384772,47:26.3,1
-0.635279,2.276616,6.907236,-0.040666,0.053147,0.067477,47:26.4,1
-0.465532,2.943329,8.173902,0.030038,0.130849,0.115753,47:26.5,1
-0.343835,3.059937,11.663446,0.133577,-0.188616,0.098313,47:26.6,1
0.71671,1.854943,13.383369,-0.080235,-0.46695,0.001845,47:26.7,1
1.306783,1.593885,9.893676,-0.634017,-0.359865,-0.076536,47:26.8,1
-0.281115,2.089355,7.564969,0.565471,-0.150254,0.38775,47:26.9,1
-0.313149,2.857857,7.307354,0.03503,0.409121,-0.394467,47:27.0,1
-0.161065,3.310366,8.382419,0.022364,0.079334,-0.204348,47:27.1,1
-0.425116,3.735482,11.644884,0.090845,-0.028868,-0.058342,47:27.2,1
0.332459,2.474205,13.543536,-0.137147,-0.073724,0.074553,47:27.3,1
-0.141156,2.040557,9.459878,-0.27977,-0.105438,0.511755,47:27.4,1
-0.25986,1.934876,8.403674,0.40937,0.069903,0.524502,47:27.5,1
-0.611778,2.587519,6.850804,-0.048278,0.05349,0.200075,47:27.6,1
-0.829725,3.240162,8.265961,0.120645,0.152099,0.186948,47:27.7,1
-0.383952,3.020569,11.934682,0.163277,-0.164212,0.090358,47:27.8,1
1.083447,2.472409,12.716955,-0.112604,-0.62958,-0.069434,47:27.9,1
1.310225,1.24571,9.946815,-0.288418,-0.23097,0.221655,47:28.0,1
-0.486039,2.150578,7.293134,0.576176,-0.124403,0.241966,47:28.1,1
-0.326471,3.06308,7.192992,-0.238629,0.528156,-0.586623,47:28.2,1
-0.357307,3.524271,8.330626,0.08125,0.076637,-0.249595,47:28.3,1
0.219294,3.843557,11.330239,0.117164,0.036396,-0.105809,47:28.4,1
0.699346,2.855911,14.00323,-0.039418,-0.23843,0.132341,47:28.5,1
-0.457898,2.162254,9.119785,-0.296797,0.073692,0.239487,47:28.6,1
-0.795596,1.590592,8.751401,0.642405,0.332076,0.369974,47:28.7,1
-0.630339,2.124083,7.017407,-0.155757,-0.004655,0.150703,47:28.8,1
-0.368234,2.94288,8.312963,-0.075283,0.122256,0.082816,47:28.9,1
-0.255968,3.317551,10.688373,0.039737,-0.167283,0.032456,47:29.0,1
0.446821,2.473905,12.709021,0.059209,-0.360648,0.061569,47:29.1,1
0.691712,1.079705,10.599458,-0.198311,-0.138955,0.08542,47:29.2,1
-0.70219,1.547781,8.2471,0.188299,0.462197,0.214187,47:29.3,1
-0.332908,2.389481,7.748487,-0.256295,0.350208,-0.659798,47:29.4,1
0.159568,2.87567,7.888596,-0.000993,-0.000356,-0.109579,47:29.5,1
0.00973,3.703598,9.087602,0.219684,0.087681,0.017336,47:29.6,1
-0.982856,3.328029,11.530672,0.234096,0.089853,0.086713,47:29.7,1
-1.3463,1.556763,10.56967,0.16419,0.194609,0.193177,47:29.8,1
-0.976569,1.296753,9.378447,0.124213,0.233307,-0.039537,47:29.9,1
-0.271535,1.754052,7.168593,-0.190537,-0.115857,-0.090444,47:30.0,1
-0.334405,2.610871,7.634125,0.019499,0.107129,0.153675,47:30.1,1
-0.553549,3.206332,9.41557,-0.004148,-0.114636,0.063263,47:30.2,1
-0.414039,3.225493,11.323503,-0.094757,-0.214244,-0.098802,47:30.3,1
0.260907,1.219963,13.433814,-0.131461,-0.388641,-0.036368,47:30.4,1
1.762136,1.041534,9.521999,-0.722173,-0.564541,-0.35445,47:30.5,1
-0.455054,1.778452,7.582782,0.823596,-0.14843,0.503841,47:30.6,1
-0.389789,2.314637,8.014184,-0.088041,0.403425,-0.423811,47:30.7,1
0.065863,3.135829,8.058343,-0.143319,0.158283,-0.172508,47:30.8,1
0.144001,3.630101,10.093061,0.008722,0.157491,0.064569,47:30.9,1
-0.306113,3.641178,11.960877,-0.18498,0.056088,0.052678,47:31.0,1
-1.353785,1.089135,10.116263,0.272641,0.530003,-0.031146,47:31.1,1
-2.297273,0.461041,9.776769,0.717867,0.446848,-0.357114,47:31.2,1
-0.941692,1.417103,8.210576,-0.174831,0.242975,-0.032998,47:31.3,1
-0.499661,2.367177,7.985594,0.254147,-0.045979,0.373749,47:31.4,1
-0.540526,2.610422,9.020093,0.162277,-0.003486,0.164482,47:31.5,1
-0.513881,2.89992,9.616003,-0.161971,-0.198837,-0.148492,47:31.6,1
-0.458946,2.133214,9.836794,-0.233029,-0.012914,0.070365,48:24.2,1
-0.390238,2.317032,9.426348,-0.047988,-0.06616,0.025007,48:24.3,1
-0.469274,2.303111,9.390572,0.034038,0.01354,0.025832,48:24.4,1
-0.48065,2.383643,9.309291,-0.110696,-0.021171,0.043547,48:24.5,1
-1.578018,2.977309,8.994646,0.03334,-0.071345,-0.034455,48:24.6,1
-1.051114,3.19795,9.225915,-0.197709,0.302346,0.180261,48:24.7,1
-0.727337,3.056644,8.54034,-0.268638,-0.021066,0.059747,48:24.8,1
-0.948577,3.061883,9.299711,0.035435,0.143659,0.281636,48:24.9,1
-1.001118,3.953279,9.045091,-0.041518,-0.058633,0.15315,48:25.0,1
-0.497416,3.503465,10.491832,0.034602,-0.217943,-0.151754,48:25.1,1
-0.847388,3.027005,12.303515,0.614733,0.167455,-0.202685,48:25.2,1
-0.541873,1.914519,10.594519,-0.023859,0.543961,0.043984,48:25.3,1
-0.299976,2.274969,8.855136,0.66524,-0.364572,0.094356,48:25.4,1
-0.751138,2.744094,7.393575,0.277734,0.024391,-0.290481,48:25.5,1
-0.938997,3.37084,6.994205,0.266359,0.015688,-0.418589,48:25.6,1
-0.734223,3.540737,8.395741,-0.188193,-0.129981,-0.258763,48:25.7,1
-0.826132,4.248914,10.551109,-0.011081,0.134875,0.050885,48:25.8,1
-1.89491,4.598438,12.965738,0.153031,-0.03915,0.490752,48:25.9,1
-0.959654,2.015858,10.451117,-1.048392,-0.520187,0.401741,48:26.0,1
-0.890199,1.723815,7.762558,0.238755,-0.061949,0.278076,48:26.1,1
-0.985101,2.126179,7.247329,-0.03519,-0.086807,0.360293,48:26.2,1
-0.550555,2.791994,7.828121,-0.041361,-0.053215,-0.034748,48:26.3,1
-0.79365,3.324437,10.666219,0.096173,-0.270477,0.034691,48:26.4,1
0.318238,2.80831,12.024046,-0.028462,-0.17533,0.016049,48:26.5,1
-0.863105,1.445843,10.759925,-0.791052,-0.194077,-0.134065,48:26.6,1
0.376767,1.74073,9.350156,0.097248,-0.595773,0.249399,48:26.7,1
0.003143,2.287543,6.641988,-0.072177,0.302187,-0.550844,48:26.8,1
-0.169148,2.645598,7.732321,0.191057,0.185066,-0.519001,48:26.9,1
-0.109273,3.74147,9.673634,0.146454,-0.223893,-0.222146,48:27.0,1
-1.393153,2.905757,10.630294,-0.363609,-0.330975,0.105162,48:27.1,1
-1.027463,1.403332,10.627899,-0.294347,0.020585,0.601177,48:27.2,1
-0.864003,1.419798,9.634864,0.579266,0.432855,0.449024,48:27.3,1
-0.178579,1.690135,6.729406,-0.019498,0.015882,0.077376,48:27.4,1
-0.304018,2.508484,7.863448,0.095754,0.190896,0.071343,48:27.5,1
-0.46149,2.855013,9.50718,0.142669,-0.145268,-0.090907,48:27.6,1
-0.396974,2.847229,11.460618,-0.145018,-0.576621,-0.161127,48:27.7,1
0.066611,0.639171,11.616294,-0.831238,-0.253603,0.06254,48:27.8,1
0.223485,1.344953,9.568552,0.490207,0.124608,0.150458,48:27.9,1
-0.362546,2.14459,6.793473,-0.39293,0.487104,-0.775387,48:28.0,1
-0.311502,2.590064,7.979906,0.273398,0.001604,-0.256676,48:28.1,1
-0.044907,3.460055,9.252859,0.010092,-0.201561,-0.115875,48:28.2,1
-0.966241,2.704725,11.087593,0.137362,-0.027829,0.115644,48:28.3,1
-0.267793,1.266516,12.157568,0.377575,0.893881,0.436096,48:28.4,1
-0.309257,1.778302,9.323362,0.790974,0.420274,0.492061,48:28.5,1
0.007784,1.698817,7.905959,-0.347638,-0.059968,0.013019,48:28.6,1
0.032482,2.656526,7.416028,0.026004,-0.090775,0.082851,48:28.7,1
-0.245939,2.933001,7.998766,0.052584,-0.253706,-0.008151,48:28.8,1
-0.193248,2.920427,10.726993,-0.109414,-0.241738,-0.035129,48:28.9,1
0.584085,0.974623,12.864249,-0.277397,0.043958,0.151351,48:29.0,1
1.198408,1.30813,10.428963,-0.272697,0.690032,-0.270026,48:29.1,1
0.038021,1.866618,7.794142,0.271222,-0.016151,-0.480023,48:29.2,1
0.14445,2.360142,7.250023,0.14264,0.118898,-0.362709,48:29.3,1
-0.291444,2.808609,8.694071,0.083681,0.003388,-0.136867,48:29.4,1
-0.234862,2.766248,11.803704,0.156326,0.051897,0.253077,48:29.5,1
0.065863,1.462608,12.2146,0.063157,0.652506,0.252371,48:29.6,1
-0.194446,1.614093,10.056837,0.353178,0.50982,0.238232,48:29.7,1
-0.48559,1.298849,8.134534,-0.453427,-0.192137,-0.150157,48:29.8,1
-0.140857,2.390978,6.839128,0.174389,0.189583,0.328623,48:29.9,1
-0.478705,2.663411,8.539442,-0.048098,-0.247904,-0.041272,48:30.0,1
-0.353565,2.987038,11.24312,0.066755,-0.001002,-0.001529,48:30.1,1
0.977318,1.737287,13.787229,-0.167814,-0.12454,0.038763,48:30.2,1
0.191452,0.722547,10.277478,-0.706008,-0.21109,-0.698201,48:30.3,1
-0.078587,0.718057,9.453741,0.265242,-0.701642,0.081497,48:30.4,1
0.621657,1.688788,7.078929,-0.060568,0.574461,-0.236421,48:30.5,1
0.617167,1.828448,8.524922,0.220998,0.092583,-0.376821,48:30.6,1
0.185764,2.788551,9.1129,0.081014,0.093606,-0.473594,48:30.7,1
-0.219593,2.641557,11.416609,0.116876,-0.036588,-0.102362,48:30.8,1
-0.352966,0.659229,11.032657,0.131163,0.375631,-0.268095,48:30.9,1
-0.160466,0.284259,10.809621,0.941348,0.659748,-0.139211,48:31.0,1
0.402513,1.225951,8.1748,-0.116644,-0.134535,-1.07289,48:31.1,1
0.405357,1.98128,8.736432,0.251157,0.042166,-1.364313,48:31.2,1
-0.49068,2.551594,8.409662,0.355757,-0.366158,-1.894102,48:31.3,1
-0.841251,3.467689,8.245453,0.320617,-0.4363,-1.459223,48:31.4,1
-1.482667,2.815795,11.070379,0.062811,-0.674025,-1.219565,48:31.5,1
-1.146616,0.415835,12.438384,-0.794071,-0.799177,-1.186962,48:31.6,1
1.043929,1.159339,8.935818,0.3799,-0.662131,-0.502566,48:31.7,1
0.358954,2.455194,8.162376,0.060877,0.291247,-0.979869,48:31.8,1
0.09625,2.730322,8.007598,-0.098122,-0.14888,-1.342353,48:31.9,1
-0.466879,2.910847,8.832233,0.149548,-0.113111,-1.148886,48:32.0,1
-0.619113,3.242258,11.828552,0.536555,-0.078651,-0.443533,48:32.1,1
-0.264201,2.273772,13.790672,0.162697,-0.036848,-0.335636,48:32.2,1
-0.448018,2.095193,9.781709,0.010171,-0.413635,-0.135243,48:32.3,1
-0.676743,1.50991,8.530012,-0.274216,-0.266206,-0.341346,48:32.4,1
-0.474663,2.204915,6.793024,0.401995,0.023393,0.234132,48:32.5,1
-0.61567,3.013234,8.275391,-0.033093,0.113246,-0.115244,48:32.6,1
-0.681084,3.62082,9.949211,0.207361,0.070595,-0.019153,48:32.7,1
0.798889,2.949616,11.051967,-0.005338,-0.669185,-0.064439,48:32.9,1
-0.847388,1.114283,10.420431,-0.773766,-0.629522,-0.319343,48:33.0,1
0.191751,1.8274,9.561816,0.131592,-0.269328,0.144727,48:33.1,1
-0.046404,2.589016,7.187903,-0.082756,0.221525,-0.441468,48:33.2,1
-0.188159,2.711312,8.239316,0.070824,0.139148,-0.398928,48:33.3,1
-0.178878,3.672014,8.977431,-0.04928,0.035907,-0.271652,48:33.4,1
-1.72636,2.840493,11.457773,0.259362,-0.354505,0.187874,48:33.5,1
-0.991538,1.3225,10.451117,-0.16028,0.403625,0.394045,48:33.6,1
-1.165925,1.610202,9.768387,0.70003,0.319005,0.43014,48:33.7,1
-0.047002,2.182462,7.11216,-0.372042,0.092435,0.043377,48:33.8,1
-0.689017,2.790198,8.097411,0.098394,0.046577,0.018639,48:33.9,1
-0.853076,3.384612,9.224717,0.189822,-0.217605,-0.033573,48:34.0,1
-1.102757,3.045417,10.998379,-0.092074,-0.546886,-0.153878,48:34.1,1
-1.174757,1.063389,10.543475,-0.078152,-0.191037,0.189537,48:34.2,1
0.536634,1.876647,10.278376,0.283501,0.264048,0.244221,48:34.3,1
-0.411943,2.528841,6.874005,-0.243333,0.242165,-0.524281,48:34.4,1
-0.315993,3.075055,8.003107,0.091946,0.123272,-0.186273,48:34.5,1
-0.443977,3.539989,9.044342,-0.04247,-0.142297,-0.115642,48:34.6,1
-1.556314,3.18822,10.966345,0.245724,-0.210763,0.292332,48:34.7,1
-1.379232,1.520239,10.281969,-0.271767,0.406889,0.258387,48:34.8,1
-1.288371,1.683399,9.225166,0.626218,0.535732,0.556485,48:34.9,1
-0.495769,2.011816,7.222181,-0.418172,-0.098562,0.165103,48:35.0,1
-0.635578,2.926864,8.179291,-0.169299,0.211701,0.080055,48:35.1,1
-1.243165,3.614683,9.487421,0.120371,-0.32788,-0.042101,48:35.2,1
-1.277144,3.409011,10.939701,0.069669,-0.49408,-0.057165,48:35.3,1
-0.778082,0.82239,11.187885,0.070749,-0.277123,0.416609,48:35.4,1
0.053289,1.588646,8.692424,0.41424,0.171566,0.23875,48:35.5,1
-0.144599,2.337689,6.959627,-0.276938,0.422712,-0.359178,48:35.6,1
-0.213306,2.885549,8.094867,0.11336,0.073815,-0.131669,48:35.7,1
-0.067959,3.824996,9.23789,0.021649,-0.018879,-0.156331,48:35.8,1
-1.520688,3.705395,10.619517,0.244849,-0.360908,0.123661,48:35.9,1
-1.042283,1.372945,11.001672,-0.109157,0.757748,0.259322,48:36.0,1
-1.293011,1.72157,9.038654,0.89448,0.534976,0.293366,48:36.1,1
-0.828677,1.903292,7.118148,-0.473105,0.105311,-0.171684,48:36.2,1
-0.72599,2.848576,8.091723,0.004808,-0.077521,0.133511,48:36.3,1
-1.021476,3.621419,9.340127,0.181069,-0.228245,0.056879,48:36.4,1
-0.488584,3.084186,11.532318,0.006404,-0.544018,0.034262,48:36.5,1
-1.134341,0.690963,11.192974,-0.205759,-0.546603,0.231586,48:36.6,1
0.522863,1.851949,9.056168,0.353524,0.186731,0.397402,48:36.7,1
0.199685,2.762655,7.202273,-0.213898,0.203659,-0.138828,48:36.8,1
-0.031285,3.153193,8.05954,0.03422,0.126501,-0.251278,48:36.9,1
-0.22588,3.900888,9.400152,0.058434,-0.005747,-0.222778,48:37.0,1
-1.201551,3.310815,11.080109,0.079847,-0.401753,0.107907,48:37.1,1
-0.775986,2.199526,11.17561,-0.163663,0.000791,0.449563,48:37.2,1
-0.917143,1.521736,8.91546,0.320221,-0.098642,0.273295,48:37.3,1
-0.303868,2.036216,6.845864,-0.127004,0.169289,0.29728,48:37.4,1
-0.082329,2.994523,8.393047,-0.283061,0.108763,0.127541,48:37.5,1
-0.37527,3.265459,10.422975,-0.059893,-0.245329,-0.126516,48:37.6,1
0.20178,2.891238,11.385474,-0.199331,-0.522328,-0.234893,48:37.7,1
0.04326,0.600102,11.328143,-0.647427,-0.542647,-0.101722,48:37.8,1
0.176483,1.400937,8.198152,0.852988,-0.000193,0.362112,48:37.9,1
0.005988,2.622995,6.781647,-0.066892,0.262437,-0.413555,48:38.0,1
0.0723,3.013084,8.092472,0.049556,0.178522,-0.426555,48:38.1,1
-0.087718,3.85164,9.804312,0.245277,0.340761,-0.078392,48:38.2,1
-1.386118,3.523822,11.578572,-0.136583,-0.372429,-0.083674,48:38.3,1
-0.812959,1.621578,10.868449,-0.519524,-0.316668,0.199621,48:38.4,1
-1.001268,1.426833,8.731343,0.096624,-0.047446,0.16789,48:38.5,1
-0.48589,2.042652,6.922505,0.035848,0.01338,0.35573,48:38.6,1
-0.335303,2.748584,8.675359,0.015962,-0.064464,0.175069,48:38.7,1
-0.434097,2.974315,10.27658,-0.035157,-0.180011,-0.022371,48:38.8,1
0.263901,2.978506,11.747271,-0.111469,-0.422475,0.001996,48:38.9,1
-0.152084,0.910257,11.294313,-0.640516,-0.527915,-0.051478,48:39.0,1
0.16346,1.558858,7.826475,0.734022,-0.283736,0.263959,48:39.1,1
-0.25956,2.651287,6.571784,-0.163203,0.433188,-0.386904,48:39.2,1
-0.204475,3.028203,8.413255,0.048634,0.077457,-0.135885,48:39.3,1
0.279319,3.892056,10.799143,0.162948,0.051809,0.083845,48:39.4,1
-0.397124,3.456762,13.079052,0.122004,-0.131706,0.012019,48:39.5,1
-0.477657,2.273023,9.441167,-0.732395,-0.815373,0.061842,48:39.6,1
-0.42317,1.584754,8.499775,-0.027154,-0.118917,0.163769,48:39.7,1
-0.436492,2.329306,7.061715,0.09407,0.150726,0.227556,48:39.8,1
-0.525557,3.14017,8.077054,-0.085154,0.037891,-0.000188,48:39.9,1
-0.630339,3.427872,11.491304,0.179184,-0.198562,0.019288,48:40.0,1
1.220712,2.280059,13.627511,-0.242825,-0.323899,-0.035133,48:40.1,1
1.121917,1.990112,9.365275,-0.905825,0.050434,-0.476617,48:40.2,1
-0.300425,2.223027,8.29021,0.321498,-0.404399,-0.000838,48:40.3,1
-0.326022,2.90456,6.81892,0.332517,0.239365,-0.180047,48:40.4,1
-0.18741,3.484604,8.066276,0.032624,0.04493,-0.181716,48:40.5,1
-0.124242,4.020489,11.110496,0.321094,0.047745,0.190182,48:40.6,1
0.219743,2.668052,14.10906,-0.221948,0.058768,-0.071482,48:40.7,1
-0.235011,2.53902,8.908275,-0.063602,0.111832,0.083163,48:40.8,1
-0.367486,1.973047,7.791448,-0.623692,-0.152865,-0.07877,48:40.9,1
-0.514031,2.771187,7.081175,0.203214,0.027173,0.206645,48:41.0,1
-0.69725,3.267705,8.27584,-0.00093,-0.06979,0.106137,48:41.1,1
-0.931513,3.367397,11.839629,0.160507,0.007915,0.046663,48:41.2,1
0.122595,1.535657,12.383299,0.10525,0.282146,0.137198,48:41.3,1
1.394949,2.334695,9.468261,-0.349145,0.291001,-0.458522,48:41.4,1
-0.448168,2.518513,7.39103,-0.278994,0.012571,-0.407984,48:41.5,1
-0.349523,2.90456,7.418274,0.012429,-0.017328,-0.154315,48:41.6,1
-0.203277,3.464995,8.281528,0.079778,-0.065592,-0.042115,48:41.7,1
-0.640817,3.008145,11.655812,0.130612,-0.095591,0.187777,48:41.8,1
0.772993,2.02439,13.053605,0.078269,0.686035,0.146382,48:41.9,1
-0.843795,2.022744,9.764794,0.366441,0.368128,-0.081687,48:42.0,1
-0.455652,1.850602,7.704478,-0.6413,-0.279812,-0.125973,48:42.1,1
-0.557441,2.607877,7.382947,-0.044169,0.169247,0.202063,48:42.2,1
-0.668809,3.405867,8.522827,0.040958,-0.145592,0.127982,48:42.3,1
-0.989293,3.186573,11.659853,0.139762,-0.124926,0.071853,48:42.4,1
-0.151934,1.273103,12.58493,0.123914,0.102478,0.320923,48:42.5,1
1.119821,2.160757,9.040899,-0.281757,0.381981,-0.264683,48:42.6,1
-0.185315,2.492766,7.279812,-0.241917,0.143163,-0.257871,48:42.7,1
-0.363295,2.809208,7.11201,0.034125,0.050553,-0.200945,48:42.8,1
-0.753683,3.30857,8.952583,0.129978,-0.063344,-0.099417,48:42.9,1
-0.660127,2.873275,11.475137,-0.017847,-0.119485,0.163153,48:43.0,1
0.511037,1.886228,13.725108,0.135536,0.76658,0.425111,48:43.1,1
-0.835113,1.98622,9.903705,0.389278,0.495777,0.050751,48:43.2,1
0.001647,2.340982,7.212302,-0.34647,-0.31334,0.010493,48:43.3,1
-1.074316,2.910997,7.489226,0.004579,-0.101097,-0.046508,48:43.4,1
-1.099314,3.316952,8.407716,0.214525,-0.153498,-0.094245,48:43.5,1
-0.883313,3.206183,10.519375,0.147684,-0.103132,-0.027696,48:43.6,1
-0.117955,1.33193,14.208753,0.109929,0.079396,0.118497,48:43.7,1
1.059347,2.037263,8.505762,-0.685097,-0.132645,-0.600694,48:43.8,1
-0.966241,1.979035,7.860005,-0.448227,0.060717,-0.478534,48:43.9,1
-0.416733,2.578688,7.62215,0.367512,0.112807,-0.092412,48:44.0,1
0.064666,3.213967,9.132509,0.053787,-0.050062,-0.086001,48:44.1,1
-0.584085,3.159779,11.857891,0.229696,0.220539,0.15511,48:44.2,1
0.174687,2.100432,13.446837,0.156122,0.37357,0.149514,48:44.3,1
-0.521366,2.097438,9.175619,0.086381,-0.407536,0.186874,48:44.4,1
-0.347428,2.157913,7.26604,-0.513832,-0.207071,-0.119784,48:44.5,1
-0.802032,2.882256,7.905211,-0.014625,0.165587,0.018087,48:44.6,1
-0.843496,3.661536,7.847431,0.297487,-0.075003,0.056274,48:44.7,1
-0.586929,3.338508,12.029135,0.079238,-0.188941,-0.086021,48:44.8,1
0.603994,2.841242,12.347673,0.148294,-0.005009,0.029429,48:44.9,1
0.571362,1.927691,9.599987,-0.791581,-0.102574,-0.60226,48:45.0,1
-0.896336,2.16884,6.742878,0.080552,-0.302364,-0.099904,48:45.1,1
-0.753234,2.735711,7.735314,0.12055,0.251816,-0.233066,48:45.2,1
-0.511636,3.544629,8.642727,-0.202794,-0.138261,-0.232688,48:45.3,1
-0.353415,3.586991,11.947705,0.164942,0.029631,0.294248,48:45.4,1
-0.33201,3.097658,13.301639,0.030427,-0.15035,0.153297,48:45.5,1
-0.796643,2.641557,8.801996,-0.342511,-0.817963,0.156773,48:45.6,1
-0.713716,1.99565,8.018376,-0.49786,-0.202132,0.104089,48:45.7,1
-0.968785,2.534529,7.086563,-0.343441,0.480601,0.073073,48:45.8,1
-0.90906,3.259023,7.881111,0.193687,0.107909,0.096086,48:45.9,1
-1.126857,3.503465,11.747122,0.125201,-0.150313,-0.015476,48:46.0,1
0.550705,2.903662,12.885055,-0.046561,-0.360378,-0.078172,48:46.1,1
0.425266,1.511557,9.299561,-0.955353,-0.178035,-0.69955,48:46.2,1
-0.646805,1.987717,7.467372,0.272998,-0.486443,0.058285,48:46.3,1
-0.862357,2.762954,7.316635,0.159954,0.354394,-0.329806,48:46.4,1
-0.746797,3.399431,8.306676,-0.072177,0.075702,-0.269783,48:46.5,1
-0.295785,3.750002,11.74338,0.323861,0.417892,0.408562,48:46.6,1
0.24998,2.825524,13.753998,-0.161761,-0.220767,-0.001805,48:46.7,1
-0.584834,2.904261,7.537576,-0.104752,-0.571186,0.184857,48:46.8,1
-0.933159,1.480571,8.316556,-0.84085,-0.36595,-0.047144,48:46.9,1
-1.095721,2.235002,7.236851,-0.140624,0.312993,0.098988,48:47.0,1
-0.698298,3.139571,8.527168,-0.001205,0.050946,-0.002088,48:47.1,1
-0.63483,3.246449,12.082724,0.08088,-0.092627,-0.064038,48:47.2,1
0.825683,2.347568,13.132042,-0.107487,-0.25369,-0.16317,48:47.3,1
0.557141,1.34181,8.957822,-0.614565,0.042427,-0.555783,48:47.4,1
-0.657433,1.831292,7.601942,0.26275,-0.23816,-0.033539,48:47.5,1
-0.3847,2.771038,6.900949,0.218914,0.264826,-0.234027,48:47.6,1
-0.253722,3.507057,8.945997,-0.006449,-0.000994,-0.221355,48:47.7,1
-0.044158,3.558251,11.468252,0.219526,0.063273,0.114158,48:47.8,1
0,2.710713,12.970677,0.08624,-0.041887,0.069965,48:47.9,1
-0.576302,2.204466,9.794283,-0.176352,-0.087492,0.104245,48:48.0,1
-0.179028,1.975442,7.83815,-0.572382,-0.180657,0.125168,48:48.1,1
-0.354164,2.913541,6.64588,0.268495,0.206887,0.354104,48:48.2,1
-0.606838,3.237917,8.153395,0.057486,-0.267218,0.065698,48:48.3,1
-0.767903,3.175197,11.529025,0.176704,-0.063037,-0.077565,48:48.4,1
0.62989,1.859882,12.804822,-0.005515,0.03478,0.106817,48:48.5,1
1.444796,1.890269,10.291848,-0.544281,0.441804,-0.283584,48:48.6,1
0.531096,2.437681,7.86704,-0.263002,0.012839,-0.249652,48:48.7,1
0.030686,2.657274,7.930957,0.103023,-0.014265,-0.376774,48:48.8,1
-0.039368,3.335663,8.005353,0.125999,-0.17288,-0.37626,48:48.9,1
-0.100291,3.680247,11.263028,0.276403,-0.03036,-0.005084,48:49.0,1
0.294438,2.92387,12.975617,-0.174969,-0.207794,-0.118237,48:49.1,1
-0.555195,2.19758,9.450897,-0.350335,-0.498312,-0.019208,48:49.2,1
-0.517025,1.55302,9.113947,-0.51618,-0.04462,0.197568,48:49.3,1
-0.42796,2.470163,7.126081,0.084066,0.033858,0.343735,48:49.4,1
-0.339793,2.864144,8.286169,-0.133658,-0.012517,0.012608,48:49.5,1
-0.265248,3.13553,11.103311,0.149663,-0.068344,0.038097,48:49.6,1
1.023871,2.807711,11.842324,-0.037176,-0.521055,-0.012489,48:49.7,1
0.094903,1.423689,11.233839,-0.892871,-0.038222,-0.262307,48:49.8,1
-0.083077,1.513652,8.075108,0.413838,-0.468065,0.010992,48:49.9,1
-0.042063,2.08232,7.670798,0.133056,0.435448,-0.336963,48:50.0,1
0.224982,2.741848,7.866741,-0.077733,0.146587,-0.243649,48:50.1,1
-0.311203,3.730393,9.920171,0.094513,-0.002961,-0.054328,48:50.2,1
-1.123713,3.251389,11.444601,-0.165168,-0.27416,-0.059479,48:50.3,1
-0.987197,1.627116,10.253378,-0.173347,-0.313883,0.270492,48:50.4,1
-1.285976,0.893043,9.496552,0.455113,0.428806,0.367375,48:50.5,1
-0.639171,1.576671,7.192393,-0.143037,-0.115161,0.138113,48:50.6,1
-0.784818,2.446812,7.709718,-0.032489,0.089371,0.16671,48:50.7,1
-0.837209,3.128195,8.974887,-0.080925,-0.242936,0.066357,48:50.8,1
-0.769699,2.9336,10.852283,0.061745,-0.29281,0.082549,48:50.9,1
0.262255,0.885708,13.286371,0.055541,0.016104,0.314966,48:51.0,1
1.469195,1.272354,9.745484,-0.693825,-0.103062,-0.351721,48:51.1,1
-0.138462,1.414708,8.303084,0.11729,-0.070457,-0.261466,48:51.2,1
-0.236059,1.419798,8.148306,0.162719,0.076481,-0.441496,48:51.3,1
-0.368085,1.91886,8.244705,0.265383,0.265439,-0.190035,48:51.4,1
-0.191152,2.664759,8.864267,0.051478,0.305294,0.163833,48:51.5,1
-0.970432,2.706222,9.410181,0.151768,0.125785,0.344443,48:51.6,1
-0.539778,1.407673,12.271032,-0.185279,0.590784,0.305003,48:51.7,1
-1.465453,0.840802,9.185199,-0.076153,-0.253973,0.060707,48:51.8,1
-0.661774,0.958906,9.627679,-0.07431,0.101349,0.308889,48:51.9,1
0.003293,2.363435,9.133557,-0.166496,0.381386,0.387959,50:20.8,1
-0.012274,2.210753,9.553134,-0.113523,-0.048278,0.011388,50:20.9,1
-0.037123,2.466122,9.584569,-0.026514,0.008513,-0.009399,50:21.0,1
-0.29324,2.25042,9.613758,-0.063959,0.040029,0.068947,50:21.1,1
-1.076112,2.874323,9.255553,0.114937,0.078742,0.094757,50:21.2,1
-1.119821,3.066972,9.541458,-0.188838,0.353175,0.241912,50:21.3,1
-0.947979,3.508404,8.537197,-0.139615,-0.000604,-0.014694,50:21.4,1
-0.651894,3.003354,8.936866,-0.168371,0.036291,0.183628,50:21.5,1
-0.893342,3.556754,9.214389,-0.191317,-0.107212,0.092582,50:21.6,1
-0.5769,3.597768,9.727821,-0.069279,-0.157728,-0.043025,50:21.7,1
-0.687071,3.524421,10.6273,0.092603,-0.221509,0.00283,50:21.8,1
-0.785716,1.58191,12.884157,-0.404354,-0.319239,0.046785,50:21.9,1
0.27408,0.581092,9.246871,0.407674,-0.059646,0.143817,50:22.0,1
0.131427,1.224753,9.135503,0.416806,0.103347,-0.251827,50:22.1,1
-0.130379,2.011667,7.225624,-0.027934,-0.072713,-0.313111,50:22.2,1
-0.158969,2.705025,7.860304,0.057746,0.084599,-0.091562,50:22.3,1
-0.362995,3.537294,9.784553,-0.011622,0.059657,-0.050024,50:22.4,1
-0.667013,3.175197,10.815759,0.169033,0.323468,0.0752,50:22.5,1
-0.583337,2.242337,11.837534,0.318414,0.03318,0.086745,50:22.6,1
-1.224903,1.50033,10.928025,-0.176063,-0.588027,0.418424,50:22.7,1
-0.269589,1.852847,6.881789,0.734987,0.454175,0.286186,50:22.8,1
-0.253573,2.582879,7.356003,-0.402244,-0.146141,0.271297,50:22.9,1
-0.265548,3.079097,8.525671,-0.095687,-0.213853,0.038255,50:23.0,1
-0.161514,2.767894,13.023667,0.022191,-0.059935,-0.136554,50:23.1,1
0.1202,2.111958,13.594879,-0.091266,-0.357181,0.009959,50:23.2,1
0.579595,1.337319,9.96852,-0.63891,-0.042126,-0.20554,50:23.3,1
-0.280367,1.33687,7.773934,0.152635,0.283507,-0.45925,50:23.4,1
-0.54352,1.249302,7.556885,-0.347913,0.036534,-0.460997,50:23.5,1
-0.3847,2.08696,8.249046,-0.035048,0.093601,-0.09608,50:23.6,1
0.102986,2.564467,11.248958,0.206422,0.041135,0.25656,50:23.7,1
-0.771645,2.875071,13.937816,0.268797,-0.060871,0.20347,50:23.8,1
0.242795,2.059866,9.475446,-0.539253,-0.866723,0.185843,50:23.9,1
-0.217348,1.345103,8.222701,-0.538542,-0.21219,0.165844,50:24.0,1
-0.448916,1.735042,7.816595,-0.213978,0.085124,0.087944,50:24.1,1
0.165556,2.563419,8.63195,0.085085,-0.086334,0.137952,50:24.2,1
-0.29324,2.449955,12.158317,0.176633,-0.07428,0.006873,50:24.3,1
0.450114,2.455344,12.117452,0.239392,-0.329301,-0.289242,50:24.4,1
0.170795,1.502725,8.986263,-0.305575,-0.156741,-0.426578,50:24.5,1
-0.501457,1.200953,8.32389,0.170348,-0.33226,-0.174957,50:24.6,1
-0.243394,2.502945,7.057673,-0.191902,0.596582,-0.268672,50:24.7,1
-0.070653,2.660118,8.966205,0.166517,0.056341,-0.127455,50:24.8,1
0.156874,3.780389,10.212663,0.246869,-0.150476,-0.000114,50:24.9,1
-0.684077,3.724704,11.711646,0.014625,-0.386521,0.021161,50:25.0,1
-0.529,2.415228,9.620344,-0.599903,-0.748309,0.273071,50:25.1,1
-0.671953,1.696422,9.126222,-0.639685,-0.166385,0.134426,50:25.2,1
-0.280217,2.020648,7.358847,-0.154665,-0.168403,0.195513,50:25.3,1
-0.372276,2.523752,7.884554,0.082326,0.007886,-0.029351,50:25.4,1
-0.450264,2.722239,10.952424,0.208669,0.039349,-0.090304,50:25.5,1
0.353116,2.747836,12.078982,-0.193515,-0.223746,-0.275324,50:25.6,1
0.142803,1.589095,9.864187,-0.534874,-0.329693,-0.264803,50:25.7,1
-0.385748,1.102158,9.202713,0.025235,-0.242168,-0.12592,50:25.8,1
-0.139959,2.502047,7.109316,0.096896,0.272481,-0.193333,50:25.9,1
-0.065564,2.848277,8.609796,0.146882,0.039456,-0.135832,50:26.0,1
0.054187,3.677253,10.577604,0.2456,0.053957,0.012702,50:26.1,1
-1.415007,3.893553,11.198513,0.020183,-0.235334,-0.068534,50:26.2,1
-1.133593,2.350113,8.899444,-0.514877,-0.578445,0.270442,50:26.3,1
-0.94244,1.692381,9.266331,-0.267762,-0.138096,0.474035,50:26.4,1
-0.174687,2.066004,6.970555,-0.198061,-0.219238,0.196892,50:26.5,1
-0.142803,2.84678,7.702832,-0.068997,0.078547,0.039086,50:26.6,1
-0.480052,3.33267,9.773925,0.027703,-0.258782,-0.002062,50:26.7,1
-0.264949,3.20289,11.583213,-0.060876,-0.655598,-0.14929,50:26.8,1
-0.272284,1.167871,10.398127,-0.715055,-0.114502,0.040472,50:26.9,1
1.39944,1.065335,9.768836,0.274946,-0.292908,0.039802,50:27.0,1
0.204774,1.925296,7.505392,-0.188161,0.445406,-0.887747,50:27.1,1
0.540975,2.45235,7.917336,0.176854,0.131858,-0.412663,50:27.2,1
0.448467,3.396138,8.781938,0.208968,-0.04783,-0.447497,50:27.3,1
-0.41823,2.947521,11.335777,-0.028581,0.081779,-0.342616,50:27.4,1
0.103884,0.656684,11.920012,0.425468,0.544521,0.004956,50:27.5,1
-0.699495,1.081202,10.350526,0.81378,0.434092,-0.307975,50:27.6,1
0.488434,1.564547,8.033494,-0.08481,0.007281,-0.669677,50:27.7,1
-0.32722,2.350861,7.718549,0.171979,0.147038,-0.740529,50:27.8,1
-0.492326,3.27459,8.423733,0.262222,-0.312134,-1.057854,50:27.9,1
-0.533042,3.286116,9.559122,0.172018,-0.257367,-0.827247,50:28.0,1
-0.018112,3.139571,12.631333,0.044591,-0.26208,-0.566841,50:28.1,1
0.308508,1.331032,11.000175,-0.310821,-0.871174,-0.802662,50:28.2,1
1.13494,1.381477,8.374485,0.27716,-0.791616,-0.562393,50:28.3,1
0.127086,1.982777,7.34792,-0.044996,-0.127532,-1.269872,50:28.4,1
-0.27902,2.89483,8.27135,-0.078315,-0.143568,-1.427358,50:28.5,1
-0.22618,3.790268,9.288934,0.166348,-0.18496,-0.957954,50:28.6,1
-1.721869,3.706742,10.789862,0.198778,-0.360448,-0.587102,50:28.7,1
-1.201851,1.550476,11.003917,-0.373581,0.201544,-0.078746,50:28.8,1
-1.147813,1.746269,8.938512,0.422767,0.151303,0.084959,50:28.9,1
-0.261357,2.118844,7.193291,-0.004908,-0.133605,-0.2393,50:29.0,1
-0.421224,3.063978,7.821086,0.112575,0.094785,-0.199961,50:29.1,1
-0.428559,3.520379,9.700278,0.292054,-0.405184,-0.350882,50:29.2,1
-0.742456,3.661236,11.060051,0.081942,-0.407306,-0.440075,50:29.3,1
-0.669109,1.933529,11.081306,-0.006667,-0.398886,-0.041761,50:29.4,1
0.421673,2.084715,8.997639,0.213841,-0.294619,-0.231278,50:29.5,1
-0.395328,2.81325,6.477181,-0.159188,0.19165,-0.774568,50:29.6,1
-0.44263,3.347489,7.993078,0.163001,-0.028771,-0.465513,50:29.7,1
-0.317789,4.159999,8.958571,-0.022966,-0.01789,-0.440372,50:29.8,1
-1.915417,3.740272,10.638078,-0.058365,-0.205487,0.026721,50:29.9,1
-1.592538,2.349963,10.455607,-0.306932,0.228632,0.489324,50:30.0,1
-1.219065,2.14474,9.488469,0.113904,0.098855,0.58789,50:30.1,1
0.007634,2.397714,6.750662,-0.159055,0.028707,0.356351,50:30.2,1
-0.473016,2.948419,8.332123,0.136155,0.018198,0.235798,50:30.3,1
-0.361947,3.738176,9.829759,0.130611,-0.156562,-0.027228,50:30.4,1
-0.245939,3.637586,11.604319,-0.206351,-0.575032,-0.145502,50:30.5,1
-0.587678,1.513802,10.307416,-0.500858,-0.363259,0.138865,50:30.6,1
0.273781,1.664389,8.843011,0.344857,0.168947,0.28113,50:30.7,1
-0.30791,2.725981,6.591992,-0.236537,0.386167,-0.520673,50:30.8,1
-0.440235,3.117567,8.315957,0.033492,0.126285,-0.246483,50:30.9,1
-0.042961,3.892505,9.56945,-0.063786,-0.073604,-0.221923,50:31.0,1
-1.488355,3.917653,10.85827,0.162359,-0.183238,0.240293,50:31.1,1
-1.55811,1.758992,10.668615,-0.259763,0.308116,0.32535,50:31.2,1
-1.384321,1.813928,8.634045,0.253081,0.359242,0.642771,50:31.3,1
-0.43275,1.951492,7.431596,-0.106786,-0.038044,0.342267,50:31.4,1
-0.261955,3.134033,7.720795,0.045644,0.244664,0.149838,50:31.5,1
-0.387544,3.750301,10.40651,0.275979,-0.226897,0.077549,50:31.6,1
-0.744552,3.376229,11.630514,0.027392,-0.471781,-0.317546,50:31.7,1
-0.719254,1.48596,9.986184,-0.535193,-0.353126,-0.107516,50:31.8,1
-0.408201,2.012864,8.366851,0.400912,-0.217183,0.390507,50:31.9,1
-0.156874,3.194357,6.752458,-0.227696,0.103992,-0.532098,50:32.0,1
-0.398322,3.03928,8.600365,0.032403,-0.022958,-0.181223,50:32.1,1
-0.024399,3.97229,10.674303,0.17296,-0.00677,-0.002878,50:32.2,1
-1.094225,3.638334,11.626772,0.035451,-0.315727,0.022669,50:32.3,1
-1.401985,2.685416,9.380244,-0.567225,-0.324571,0.156018,50:32.4,1
-1.082399,1.391656,8.988359,-0.451382,-0.013309,0.314006,50:32.5,1
-0.42302,1.976789,6.268515,-0.211945,0.107484,0.371685,50:32.6,1
-0.479004,3.143463,8.317753,-0.201287,0.264735,0.230288,50:32.7,1
-0.667312,3.434009,11.703263,-0.011116,-0.123557,-0.001202,50:32.8,1
-0.482297,3.179239,12.825479,0.003278,-0.220182,-0.173877,50:32.9,1
-0.854723,1.247057,9.143137,-0.429075,-0.717337,-0.359457,50:33.0,1
-0.657133,1.401386,8.243807,0.588788,-0.392814,0.328555,50:33.1,1
-0.0482,2.704576,7.068601,0.069539,0.085883,-0.326521,50:33.2,1
-0.045505,3.35198,8.207882,-0.009402,0.070126,-0.176289,50:33.3,1
-0.297282,4.230652,10.429412,0.079046,0.02923,-0.038359,50:33.4,1
-1.181792,3.791915,12.02674,-0.092913,-0.162006,-0.091944,50:33.5,1
-1.228495,2.930007,8.726553,-0.490692,-0.445476,0.3103,50:33.6,1
-1.335523,1.630709,9.052725,-0.393046,-0.148755,0.329803,50:33.7,1
-0.599503,2.329755,6.659202,-0.222649,-0.077412,0.297953,50:33.8,1
-0.634381,3.1737,8.266859,-0.023072,0.169288,0.156228,50:33.9,1
-0.396525,3.587889,11.195668,0.16432,-0.051702,-0.051544,50:34.0,1
-0.109722,3.116369,12.659624,-0.058518,-0.356533,-0.18828,50:34.1,1
-0.106429,1.394051,9.896071,-0.808103,-0.397142,-0.429679,50:34.2,1
-0.304018,1.391207,7.912246,0.523293,-0.374022,0.2659,50:34.3,1
-0.411943,2.743195,6.683901,0.15801,0.049706,-0.359497,50:34.4,1
-0.128283,3.236719,8.606952,-0.102303,0.06656,-0.281956,50:34.5,1
-0.067959,4.206103,10.520273,0.076472,0.072501,-0.025046,50:34.6,1
-1.307681,3.453468,12.027189,-0.104625,-0.237731,-0.128031,50:34.7,1
-1.406775,2.017954,9.26648,-0.576819,-0.445325,0.082968,50:34.8,1
-1.517544,1.649121,8.817414,-0.14616,0.184708,0.536629,50:34.9,1
-0.17304,2.322421,7.163653,-0.130495,-0.196547,0.615168,50:35.0,1
-0.236358,3.004552,8.446635,0.029277,0.085886,0.22372,50:35.1,1
-0.253124,3.86167,9.946666,0.168276,-0.116047,-0.069106,50:35.2,1
-0.440684,3.584446,11.432775,0.030032,-0.450426,-0.297735,50:35.3,1
-0.799338,1.387764,10.243648,-0.47238,-0.533283,-0.110146,50:35.4,1
0.18741,1.783092,8.931926,0.454863,-0.001732,0.232185,50:35.5,1
-0.506846,2.780917,6.646179,-0.0808,0.299613,-0.462257,50:35.6,1
-0.486189,3.223846,8.106093,-0.056281,0.045636,-0.280191,50:35.7,1
-0.034428,4.179608,8.693771,0.000874,0.074513,-0.033885,50:35.8,1
-1.275498,3.857478,10.708731,-0.088749,-0.19512,0.104728,50:35.9,1
-1.058299,2.035318,10.622361,-0.176889,0.402857,0.392531,50:36.0,1
-1.464105,1.597478,9.531729,0.491128,0.44458,0.374435,50:36.1,1
-0.502206,2.080374,7.446864,-0.303095,0.094491,-0.059904,50:36.2,1
-0.367336,2.93839,7.712262,0.229382,-0.071484,0.353126,50:36.3,1
-0.368234,4.112698,8.576864,0.188707,-0.339855,0.061484,50:36.4,1
-1.314716,3.78922,11.050919,-0.205394,-0.107913,-0.055621,50:36.5,1
-0.575553,1.208886,11.961476,-0.108641,-0.060561,0.255149,50:36.6,1
1.244512,1.967209,9.430539,0.144647,0.381906,-0.187499,50:36.7,1
-0.226778,2.407294,6.911877,-0.124238,0.028789,-0.485336,50:36.8,1
-0.180824,3.223397,7.543563,0.008916,0.177429,-0.062361,50:36.9,1
-0.237107,3.893703,8.467442,-0.097824,0.061955,-0.093536,50:37.0,1
-0.808169,3.53909,11.407628,0.14879,0.039409,0.235445,50:37.1,1
-0.468226,1.694476,12.934453,-0.090108,0.475151,-0.002309,50:37.2,1
-1.057401,1.644181,9.29058,0.554394,0.401239,0.022944,50:37.3,1
-0.736019,1.815425,8.378826,-0.132485,-0.05562,-0.106169,50:37.4,1
-0.75997,2.725981,7.219786,0.048091,0.033006,0.220507,50:37.5,1
-0.766107,3.367098,8.996142,0.100801,-0.041052,0.113731,50:37.6,1
-1.006058,3.419489,11.546389,0.056301,-0.212575,-0.000698,50:37.7,1
0.114961,1.547482,13.051509,0.120579,0.059521,0.115374,50:37.8,1
0.828078,1.464255,8.652307,0.049658,0.319028,-0.384642,50:37.9,1
-0.312101,2.135759,6.68899,-0.016948,0.119797,-0.133059,50:38.0,1
-0.421224,3.162623,7.383246,0.080469,0.095908,-0.200978,50:38.1,1
-0.203277,3.812871,9.170679,-0.229929,-0.11188,-0.210129,50:38.2,1
-0.463137,3.701353,11.886482,0.091923,0.034771,0.143471,50:38.3,1
0.111518,1.860631,13.762381,0.15827,0.207633,0.077688,50:38.4,1
-0.910107,1.98128,9.384734,0.287761,-0.096976,-0.148078,50:38.5,1
-0.708626,1.628314,8.457712,-0.267827,-0.088322,-0.008514,50:38.6,1
-0.211959,2.607428,6.841822,0.064651,-0.004546,0.435302,50:38.7,1
-0.495619,3.118016,8.556207,0.063632,-0.150231,0.192772,50:38.8,1
-0.390089,3.311115,11.479478,0.074367,-0.049152,-0.006895,50:38.9,1
0.998274,1.781895,12.761562,-0.106645,-0.159104,-0.2102,50:39.0,1
0.831072,1.503324,10.067165,-0.310342,0.247039,-0.583422,50:39.1,1
-0.085472,1.776057,8.3435,0.187244,-0.452165,-0.128636,50:39.2,1
-0.08173,2.849175,7.279812,0.122036,0.203143,-0.299515,50:39.3,1
-0.031285,3.214416,8.702154,0.037148,-0.039374,-0.240784,50:39.4,1
-0.12978,3.677852,11.343112,0.125222,0.147197,-0.096821,50:39.5,1
-0.289648,2.943329,12.50784,-0.006988,-0.004629,-0.054596,50:39.6,1
-0.981958,2.177971,9.310638,-0.304855,-0.370237,-0.011565,50:39.7,1
-1.160836,1.481918,9.19927,-0.230803,-0.053607,0.279793,50:39.8,1
-0.458047,2.516267,6.654861,-0.083281,-0.144987,0.315043,50:39.9,1
-0.449515,3.104544,8.444689,0.050623,0.083825,0.174837,50:40.0,1
-0.420925,3.245251,11.25734,0.258762,-0.140642,-0.07814,50:40.1,1
-0.036823,3.412603,11.305091,-0.16473,-0.325116,-0.432517,50:40.2,1
-1.112187,0.960403,10.690768,-0.638962,-0.724297,-0.099857,50:40.3,1
0.018711,1.585204,9.047935,0.056462,-0.079205,0.291996,50:40.4,1
0.108824,2.820884,6.41506,-0.069247,0.275923,-0.184363,50:40.5,1
-0.33186,2.973267,8.690328,0.030534,0.103245,-0.122857,50:40.6,1
-0.278421,3.831283,9.810599,0.06441,-0.049687,-0.123743,50:40.7,1
-1.489552,3.899691,10.813214,-0.010371,-0.017585,0.085021,50:40.9,1
-1.464854,1.906436,10.055789,-0.482123,-0.170472,0.293122,50:41.0,1
-1.595981,1.420995,8.754395,-0.067457,0.345406,0.49693,50:41.1,1
-0.738714,1.950594,7.035819,-0.216429,-0.113055,0.26416,50:41.2,1
-0.710572,2.660717,8.00685,0.045741,0.089845,0.202717,50:41.3,1
-0.751138,3.491938,10.241553,0.176225,-0.162487,0.106242,50:41.4,1
-0.469424,3.165168,11.535163,-0.053985,-0.549109,-0.124156,50:41.5,1
-0.782722,0.90397,10.419383,-0.371093,-0.220988,0.157313,50:41.6,1
0.308658,1.265169,9.438323,0.203764,0.112217,0.217636,50:41.7,1
-0.29818,2.363884,6.976542,-0.191023,0.296013,-0.457997,50:41.8,1
-0.390238,3.052153,7.8383,0.164614,0.066089,-0.122001,50:41.9,1
-0.356109,3.715274,9.216185,0.027383,-0.070232,-0.166034,50:42.0,1
-0.727487,3.76542,11.003468,0.161472,0.009474,0.160197,50:42.1,1
-0.742007,1.651516,13.237123,0.250143,0.474801,0.136377,50:42.2,1
-1.266965,1.69268,8.873098,0.473389,0.529687,-0.087651,50:42.3,1
-0.614622,1.556912,7.435488,-0.121482,-0.014186,0.097641,50:42.4,1
-0.463736,3.092868,7.519613,0.234654,0.015625,0.411601,50:42.5,1
-0.59636,3.825146,8.096962,0.13718,-0.287535,0.050111,50:42.6,1
-1.039438,3.57307,11.448193,0.107869,0.023856,0.005056,50:42.7,1
0.457598,1.330583,12.709471,0.037073,-0.129751,0.142815,50:42.8,1
1.330882,1.957928,9.432485,-0.314736,0.623995,-0.408183,50:42.9,1
-0.236808,2.246977,7.707472,-0.089973,-0.131181,-0.445181,50:43.0,1
-0.386796,3.197201,7.257059,0.112897,0.054432,-0.213354,50:43.1,1
-0.145647,3.636687,8.038135,0.119286,-0.02134,-0.11418,50:43.2,1
-0.752635,3.461552,11.593541,0.18666,0.017646,0.074298,50:43.3,1
-0.418679,2.384092,13.136832,0.154392,0.374885,0.027657,50:43.4,1
-0.890199,1.883833,10.065519,0.371527,0.346964,-0.026213,50:43.5,1
-0.722847,1.799857,7.546407,-0.132452,0.077,-0.126232,50:43.6,1
-0.613424,2.857258,6.929241,0.130489,0.064809,0.414305,50:43.7,1
-0.740809,3.506608,8.375683,-0.040916,-0.176407,0.131764,50:43.8,1
-0.907114,3.60181,11.394455,0.176371,0.064975,0.144511,50:43.9,1
-0.18277,1.501827,12.225976,0.140371,0.127911,0.07698,50:44.0,1
0.99543,1.791475,10.32448,-0.264239,0.646188,-0.379685,50:44.1,1
0.060774,2.354903,7.100185,-0.171613,-0.193916,-0.311675,50:44.2,1
-0.113763,2.983895,7.345675,0.14565,0.079866,-0.062636,50:44.3,1
-0.204325,3.39524,8.922496,0.044401,-0.108779,-0.338465,50:44.4,1
-0.947979,3.567531,11.494896,0.17435,-0.013151,-0.086366,50:44.5,1
0.041613,2.109563,14.035413,0.084899,0.188725,-0.00491,50:44.6,1
-0.723745,2.099833,10.013128,0.397491,0.137176,-0.110091,50:44.7,1
-0.753683,1.763034,7.921078,-0.054213,0.054651,-0.162168,50:44.8,1
-0.833317,2.795736,6.538254,0.152564,0.133728,0.313951,50:44.9,1
-0.883014,3.417543,8.272248,-0.036362,-0.105956,0.155695,50:45.0,1
-0.86071,3.446134,11.510314,0.152375,-0.051838,0.148926,50:45.1,1
0.675994,1.893562,13.186079,-0.015051,-0.023211,-0.110971,50:45.2,1
0.528251,1.842069,9.21349,-0.555907,0.271362,-0.68204,50:45.3,1
-0.660876,2.025737,8.043523,0.088462,-0.393197,0.017037,50:45.4,1
-0.574505,3.056494,6.937623,-0.022169,0.198327,-0.107672,50:45.5,1
-0.390688,3.14032,8.830437,-0.04084,-0.014184,-0.135508,50:45.6,1
0.005988,3.814368,11.301798,0.172388,0.166216,0.230253,50:45.7,1
0.028141,2.734663,13.643229,0.003312,-0.185604,0.022905,50:45.8,1
-0.773591,2.378105,8.877589,-0.298967,-0.231162,-0.207923,50:45.9,1
-1.369352,1.429976,8.887768,-0.177915,-0.136056,0.178614,50:46.0,1
-0.658481,2.404001,6.987619,-0.112844,-0.123888,0.326077,50:46.1,1
-0.398022,2.925367,8.570727,-0.031391,0.105847,0.146176,50:46.2,1
-0.742456,3.289709,10.749895,0.298645,-0.096034,-0.018028,50:46.3,1
0.807122,2.513723,13.077854,-0.065551,-0.492315,-0.331108,50:46.4,1
0.244741,1.349294,9.928404,-0.867333,-0.21773,-0.568096,50:46.5,1
-0.592917,1.560355,8.252339,0.233447,-0.389781,0.099035,50:46.6,1
-0.304018,2.759661,7.483089,-0.082362,0.191536,-0.258372,50:46.7,1
0.049098,3.020419,8.300689,0.087956,0.03951,-0.127655,50:46.8,1
0.016017,3.839516,10.959011,0.259603,0.041447,0.024009,50:46.9,1
-0.51912,3.194058,12.793446,-0.063826,-0.173293,-0.114226,50:47.0,1
-1.26936,2.410737,9.050629,-0.453844,-0.434599,0.077136,50:47.1,1
-1.409619,1.186433,9.613758,-0.198534,-0.159934,0.473022,50:47.2,1
-0.46643,2.299518,6.430029,-0.08607,0.010888,0.366032,50:47.3,1
-0.510289,3.060685,8.33856,0.039745,0.135636,0.198699,50:47.4,1
-0.731529,3.648214,9.22831,0.055106,-0.324135,-0.050249,50:47.5,1
-0.248783,3.311115,11.251802,-0.074647,-0.401831,-0.0477,50:47.6,1
-0.766556,0.699795,10.727592,-0.714793,-0.46452,0.005185,50:47.7,1
0.409099,1.434467,9.943223,0.226402,0.157371,0.403559,50:47.8,1
-0.256716,2.465822,8.03574,-0.131191,0.246701,-0.82329,50:47.9,1
-0.318538,2.584226,7.721543,0.252525,0.04119,-0.314911,50:48.0,1
-0.295186,3.324137,8.014035,0.147388,-0.128902,-0.191651,50:48.1,1
-0.786614,2.95276,11.914025,0.06796,0.174862,0.176394,50:48.2,1
0.299976,1.91886,13.317955,0.112776,0.254067,-0.049263,50:48.3,1
-0.91834,1.57727,9.898616,0.135452,-0.190018,-0.28856,50:48.4,1
-1.02417,1.278491,9.443712,-0.246679,0.009856,-0.121151,50:48.5,1
-0.982407,1.683399,7.449259,0.111306,-0.301921,0.123303,50:48.6,1
-0.890798,2.617158,8.69931,0.134431,0.108592,0.294485,50:48.7,1
-0.654289,3.213667,9.089698,0.042526,-0.266407,0.03409,50:48.8,1
-0.432151,3.443888,9.958042,-0.087485,-0.079836,0.127928,50:48.9,1
-0.502056,1.267863,12.515773,0.126286,0.167155,0.459584,50:49.0,1
0.55759,1.792672,10.396031,-0.19571,0.514948,-0.09092,50:49.1,1
-0.31749,2.840793,9.62708,-0.288001,-0.233944,-0.585568,51:52.6,1
-0.186063,3.009192,9.313183,0.098605,-0.111951,-0.026714,51:52.7,1
-0.181273,2.929558,9.215287,-0.02396,-0.020569,0.060184,51:52.8,1
-0.488584,2.862348,9.395213,-0.182175,0.138355,-0.006799,51:52.9,1
-0.53843,2.92372,9.319769,-0.036073,-0.018637,0.051647,51:53.0,1
-0.950224,3.166815,8.127798,-0.091872,-0.056858,0.139811,51:53.1,1
-1.04842,3.344794,10.082733,0.25829,0.30646,0.400042,51:53.2,1
-0.722398,3.28447,8.529413,-0.622871,0.070561,0.045227,51:53.3,1
-0.051643,3.507207,8.62686,-0.080854,0.10032,0.410684,51:53.4,1
-0.49547,3.823948,9.236243,-0.188019,-0.061611,0.132811,51:53.5,1
-0.595013,3.786227,9.77647,-0.175696,-0.089182,0.069956,51:53.6,1
-0.705184,4.07318,10.375374,-0.01905,-0.115043,0.175832,51:53.7,1
-0.580193,1.895957,12.367282,-0.142115,-0.205908,0.340013,51:53.8,1
0.437091,0.65893,9.447005,-0.33882,-0.390735,-0.277859,51:53.9,1
0.021555,1.36561,7.858957,0.803721,0.243026,-0.025696,51:54.0,1
-0.025297,2.521956,7.378456,0.037861,-0.022562,-0.282545,51:54.1,1
-0.088017,3.218457,8.443342,-0.041557,0.02799,-0.166318,51:54.2,1
-0.549956,3.794759,8.757539,-0.260065,0.07736,-0.231918,51:54.3,1
-0.348775,3.639981,11.678415,0.383334,0.043766,0.196747,51:54.4,1
-0.200733,2.780917,13.205389,0.322973,0.14403,0.090877,51:54.5,1
-1.173111,1.999692,8.462802,-0.193985,0.100882,0.006892,51:54.6,1
-0.56747,1.813629,8.460406,0.014721,0.057362,0.45723,51:54.7,1
-0.396525,2.431095,7.121291,0.048784,-0.13941,0.460016,51:54.8,1
0.059726,3.201542,7.924371,-0.052999,-0.048216,0.204198,51:54.9,1
0.286654,3.406466,11.903097,-0.039735,0.013858,-0.043506,51:55.0,1
0.313149,2.055376,13.564043,-0.511402,-0.497333,-0.383624,51:55.1,1
0.797841,1.097817,10.729987,-0.942714,0.076548,-0.59236,51:55.2,1
-0.123942,1.820215,7.718699,0.190662,0.036905,-0.288963,51:55.3,1
-0.152533,2.65428,6.437962,0.417872,0.058498,-0.326797,51:55.4,1
0.042063,3.510051,8.883127,0.158042,-0.09289,-0.425328,51:55.5,1
-0.207618,4.058211,11.007061,0.399434,0.01087,-0.119951,51:55.6,1
-0.209415,3.748505,12.450509,-0.086015,-0.308742,-0.143963,51:55.7,1
-1.127905,2.292034,10.2911,-0.563699,-0.582419,0.007666,51:55.8,1
-1.056353,1.707649,8.546927,-0.237386,-0.164946,0.018084,51:55.9,1
